atomic number =    5
effective nuclear charge =    5
electron count =    1
net charge =    4
basis set = approximate basis set limit (UGBS)      
exchange correlation functional = PW91PW91            
cutoff radius (picometer) =  300
number of shells =   50
prepared by = Thomas A. Manz      
prepared date = July 2010           
magnetization =    1
density in atomic units:
0.18427214E+02
0.61108985E+01
0.21356094E+01
0.73155570E+00
0.25152546E+00
0.79400487E-01
0.25446733E-01
0.87963976E-02
0.29440294E-02
0.99245284E-03
0.32377022E-03
0.10145752E-03
0.34143402E-04
0.11083739E-04
0.34722041E-05
0.10327559E-05
0.30919281E-06
0.13022145E-06
0.43834959E-07
0.13561147E-07
0.69429182E-08
0.55146567E-08
0.24387927E-08
0.12606852E-08
0.96093189E-09
0.53610061E-09
0.75337697E-09
0.10031288E-08
0.11039645E-08
0.10852947E-08
0.98551967E-09
0.84442164E-09
0.69030531E-09
0.54152860E-09
0.41054496E-09
0.30326844E-09
0.21886264E-09
0.15371428E-09
0.10444023E-09
0.69594698E-10
0.45692460E-10
0.29236957E-10
0.18503293E-10
0.11519721E-10
0.70250463E-11
0.42178800E-11
0.24711767E-11
0.14340854E-11
0.81695463E-12
0.45856428E-12
