atomic number =   77
effective nuclear charge =   77
electron count =   71
net charge =    6
basis set = approximate basis set limit (UGBS)      
exchange correlation functional = PW91PW91            
cutoff radius (picometer) =  400
number of shells =   75
prepared by = Thomas A. Manz      
prepared date = July 2010           
magnetization =    3
density in atomic units:
0.69294219E+05
0.38968469E+03
0.94204880E+02
0.51697426E+02
0.30996105E+02
0.14607299E+02
0.69294128E+01
0.37308884E+01
0.23090093E+01
0.15660573E+01
0.10947039E+01
0.76021886E+00
0.51875466E+00
0.35156810E+00
0.23636682E+00
0.15802267E+00
0.10522720E+00
0.70530400E-01
0.48046030E-01
0.33258405E-01
0.23390146E-01
0.16671026E-01
0.12024939E-01
0.88227857E-02
0.65897503E-02
0.49962765E-02
0.38435769E-02
0.30084841E-02
0.23649556E-02
0.18834647E-02
0.15216541E-02
0.12384460E-02
0.10086122E-02
0.82345458E-03
0.67866757E-03
0.56085101E-03
0.46280332E-03
0.38366736E-03
0.31931038E-03
0.26531293E-03
0.22020980E-03
0.18353578E-03
0.15328333E-03
0.12795588E-03
0.10705848E-03
0.89579204E-04
0.75158619E-04
0.63026426E-04
0.52933963E-04
0.44526667E-04
0.37582606E-04
0.31809581E-04
0.26971022E-04
0.22922914E-04
0.19613475E-04
0.16750731E-04
0.14308979E-04
0.12271790E-04
0.10539832E-04
0.90881394E-05
0.78279309E-05
0.67817150E-05
0.58660794E-05
0.50698045E-05
0.43959526E-05
0.38072180E-05
0.33202546E-05
0.28822060E-05
0.25140255E-05
0.21922692E-05
0.19168278E-05
0.16755600E-05
0.14544138E-05
0.12635782E-05
0.10960791E-05
