atomic number =   84
effective nuclear charge =   84
electron count =   87
net charge =   -3
basis set = approximate basis set limit (UGBS)      
exchange correlation functional = PW91                
cutoff radius (picometer) =  300
number of shells =   50
prepared by = Thomas A. Manz      
prepared date = 2012                
magnetization =    1
density in atomic units:
0.91016398E+05
0.28805499E+03
0.89403374E+02
0.45599384E+02
0.17706518E+02
0.72538967E+01
0.42713337E+01
0.29574945E+01
0.20117052E+01
0.13404877E+01
0.87156546E+00
0.56719875E+00
0.38882679E+00
0.27309927E+00
0.19989954E+00
0.15121996E+00
0.11772569E+00
0.95000386E-01
0.77667378E-01
0.64312845E-01
0.53803787E-01
0.45325227E-01
0.38465973E-01
0.32799233E-01
0.28062964E-01
0.24093281E-01
0.20783514E-01
0.18062066E-01
0.15711786E-01
0.13705677E-01
0.12016887E-01
0.10562534E-01
0.93245050E-02
0.82468828E-02
0.73119639E-02
0.65086563E-02
0.58103013E-02
0.51918663E-02
0.46387748E-02
0.41560349E-02
0.37322144E-02
0.33490483E-02
0.30118856E-02
0.27128838E-02
0.24440698E-02
0.22057113E-02
0.19907495E-02
0.17982420E-02
0.16253821E-02
0.14715086E-02
