atomic number =   88
effective nuclear charge =   88
electron count =   88
net charge =    0
basis set = approximate basis set limit (UGBS)      
exchange correlation functional = PW91PW91            
cutoff radius (picometer) =  300
number of shells =   50
prepared by = Thomas A. Manz      
prepared date = July 2010           
magnetization =    0
density in atomic units:
0.10498159E+06
0.29898755E+03
0.10159981E+03
0.44977020E+02
0.16152115E+02
0.74884577E+01
0.47713528E+01
0.31612899E+01
0.19806294E+01
0.12331980E+01
0.78083223E+00
0.52159607E+00
0.38038638E+00
0.28841662E+00
0.22565512E+00
0.17825027E+00
0.14085895E+00
0.11230779E+00
0.88737994E-01
0.69813892E-01
0.54832947E-01
0.43010484E-01
0.33856120E-01
0.26735825E-01
0.21202086E-01
0.16932093E-01
0.13674494E-01
0.11232265E-01
0.93120718E-02
0.78190342E-02
0.66700219E-02
0.57588136E-02
0.50384020E-02
0.44493340E-02
0.39632698E-02
0.35602211E-02
0.32177209E-02
0.29178034E-02
0.26495787E-02
0.24134947E-02
0.22029872E-02
0.20087133E-02
0.18335029E-02
0.16740875E-02
0.15266907E-02
0.13923188E-02
0.12679332E-02
0.11533947E-02
0.10479743E-02
0.95191732E-03
