atomic number =   93
effective nuclear charge =   93
electron count =   93
net charge =    0
basis set = approximate basis set limit (UGBS)      
exchange correlation functional = PW91PW91            
cutoff radius (picometer) =  300
number of shells =   50
prepared by = Thomas A. Manz      
prepared date = July 2010           
magnetization =    5
density in atomic units:
0.12391540E+06
0.31522412E+03
0.11457352E+03
0.41895554E+02
0.15083965E+02
0.83037729E+01
0.53625607E+01
0.33811147E+01
0.20552990E+01
0.13092490E+01
0.87400067E+00
0.61996162E+00
0.46869326E+00
0.35559261E+00
0.27323377E+00
0.20727402E+00
0.15663135E+00
0.11904365E+00
0.89952715E-01
0.68047978E-01
0.51552858E-01
0.39418880E-01
0.30528542E-01
0.23846082E-01
0.18903496E-01
0.15189409E-01
0.12414256E-01
0.10369440E-01
0.87464834E-02
0.74851010E-02
0.64827460E-02
0.56725247E-02
0.50046016E-02
0.44371970E-02
0.39562392E-02
0.35404337E-02
0.31793267E-02
0.28577142E-02
0.25638933E-02
0.23047766E-02
0.20729585E-02
0.18598116E-02
0.16697251E-02
0.14979170E-02
0.13422199E-02
0.12023344E-02
0.10752394E-02
0.96064323E-03
0.85714308E-03
0.76499552E-03
