atomic number =   85
effective nuclear charge =   85
electron count =   79
net charge =    6
basis set = approximate basis set limit (UGBS)      
exchange correlation functional = PW91                
cutoff radius (picometer) =  300
number of shells =   50
prepared by = Thomas A. Manz      
prepared date = 2012                
magnetization =    1
density in atomic units:
0.94398172E+05
0.29069522E+03
0.92473656E+02
0.45666534E+02
0.17236893E+02
0.71829686E+01
0.43640509E+01
0.30445371E+01
0.20536573E+01
0.13412218E+01
0.84165704E+00
0.51700485E+00
0.32713220E+00
0.20524113E+00
0.13014510E+00
0.82726017E-01
0.52659854E-01
0.34496114E-01
0.22498127E-01
0.14704220E-01
0.96388189E-02
0.63121752E-02
0.41461089E-02
0.27193660E-02
0.17756595E-02
0.11552199E-02
0.75121532E-03
0.49280876E-03
0.32000773E-03
0.20657259E-03
0.13365639E-03
0.85982130E-04
0.55384746E-04
0.35447534E-04
0.22583619E-04
0.14429283E-04
0.92134569E-05
0.58500564E-05
0.36666972E-05
0.22865124E-05
0.14454976E-05
0.90323414E-06
0.56236945E-06
0.34552525E-06
0.20912674E-06
0.12505512E-06
0.72898246E-07
0.42594426E-07
0.28075414E-07
0.16093377E-07
