atomic number =   77
effective nuclear charge =   77
electron count =   79
net charge =   -2
basis set = approximate basis set limit (UGBS)      
exchange correlation functional = PW91PW91            
cutoff radius (picometer) =  400
number of shells =   75
prepared by = Thomas A. Manz      
prepared date = July 2010           
magnetization =    1
density in atomic units:
0.69295805E+05
0.38961880E+03
0.94155792E+02
0.51748737E+02
0.31026438E+02
0.14592305E+02
0.69105425E+01
0.37459431E+01
0.23706460E+01
0.16683517E+01
0.12243013E+01
0.90357459E+00
0.66439158E+00
0.49125743E+00
0.36508164E+00
0.27329251E+00
0.20633164E+00
0.15811081E+00
0.12359932E+00
0.98263010E-01
0.79361528E-01
0.64831652E-01
0.53493764E-01
0.44614155E-01
0.37609868E-01
0.31953178E-01
0.27335236E-01
0.23584872E-01
0.20351691E-01
0.17667362E-01
0.15443674E-01
0.13540284E-01
0.11859840E-01
0.10393520E-01
0.91571650E-02
0.80759050E-02
0.71114553E-02
0.62775575E-02
0.55530071E-02
0.49033868E-02
0.43227780E-02
0.38196333E-02
0.33755864E-02
0.29797864E-02
0.26318023E-02
0.23226582E-02
0.20508051E-02
0.18081774E-02
0.15925941E-02
0.14022840E-02
0.12351553E-02
0.10878588E-02
0.95706742E-03
0.84185228E-03
0.74169127E-03
0.65245340E-03
0.57320378E-03
0.50392764E-03
0.44334386E-03
0.38978818E-03
0.34254801E-03
0.30134007E-03
0.26510702E-03
0.23304966E-03
0.20483417E-03
0.18012006E-03
0.15851250E-03
0.13946783E-03
0.12262622E-03
0.10799220E-03
0.95224161E-04
0.83823339E-04
0.73766962E-04
0.64970707E-04
0.57307265E-04
