atomic number =   85
effective nuclear charge =   85
electron count =   78
net charge =    7
basis set = approximate basis set limit (UGBS)      
exchange correlation functional = PW91                
cutoff radius (picometer) =  300
number of shells =   50
prepared by = Thomas A. Manz      
prepared date = 2012                
magnetization =    0
density in atomic units:
0.94382328E+05
0.29067746E+03
0.92463478E+02
0.45677601E+02
0.17209024E+02
0.71505661E+01
0.43613653E+01
0.30602040E+01
0.20672004E+01
0.13409122E+01
0.82574219E+00
0.49014860E+00
0.29575682E+00
0.17390628E+00
0.10174909E+00
0.58758214E-01
0.33454087E-01
0.19508529E-01
0.11197865E-01
0.63887145E-02
0.36311434E-02
0.20468277E-02
0.11514667E-02
0.64378325E-03
0.35675193E-03
0.19668297E-03
0.10852327E-03
0.60869639E-04
0.33836579E-04
0.18711622E-04
0.10385978E-04
0.57111265E-05
0.31291518E-05
0.16838763E-05
0.89336885E-06
0.46864113E-06
0.24350680E-06
0.12755275E-06
0.68667703E-07
0.44137234E-07
0.29886230E-07
0.22194918E-07
0.16795804E-07
0.13023370E-07
0.10441888E-07
0.84493905E-08
0.67089485E-08
0.52997149E-08
0.46491353E-08
0.38567114E-08
