atomic number =    9
effective nuclear charge =    9
electron count =    9
net charge =    0
basis set = approximate basis set limit (UGBS)      
exchange correlation functional = PW91PW91            
cutoff radius (picometer) =  300
number of shells =   50
prepared by = Thomas A. Manz      
prepared date = July 2010           
magnetization =    1
density in atomic units:
0.13199594E+03
0.18903275E+02
0.44614658E+01
0.21517007E+01
0.15908105E+01
0.12099048E+01
0.89478326E+00
0.65266883E+00
0.46330529E+00
0.32746634E+00
0.22790708E+00
0.15753545E+00
0.11176199E+00
0.78843370E-01
0.56048959E-01
0.39822225E-01
0.28287064E-01
0.20510674E-01
0.14833188E-01
0.10773469E-01
0.78752395E-02
0.57834429E-02
0.42812675E-02
0.31843998E-02
0.23748556E-02
0.17766351E-02
0.13359246E-02
0.10153055E-02
0.76996483E-03
0.58446749E-03
0.44630986E-03
0.34104803E-03
0.26191745E-03
0.20116902E-03
0.15474677E-03
0.11964417E-03
0.92735041E-04
0.71826704E-04
0.55483099E-04
0.43038493E-04
0.33501085E-04
0.25933650E-04
0.20123665E-04
0.15642370E-04
0.12127605E-04
0.94183333E-05
0.72893349E-05
0.56257190E-05
0.43375371E-05
0.33500646E-05
