atomic number =   40
effective nuclear charge =   40
electron count =   38
net charge =    2
basis set = approximate basis set limit (UGBS)      
exchange correlation functional = PW91                
cutoff radius (picometer) =  500
number of shells =  100
prepared by = Thomas A. Manz      
prepared date = 2011                
magnetization =    2
density in atomic units:
0.55752801E+05
0.25272525E+03
0.54048069E+02
0.30871033E+02
0.17484325E+02
0.91331387E+01
0.44098315E+01
0.21727974E+01
0.13067886E+01
0.94486064E+00
0.75560629E+00
0.62998164E+00
0.51802367E+00
0.41599241E+00
0.33281893E+00
0.26220495E+00
0.20213631E+00
0.15537205E+00
0.11856551E+00
0.89701973E-01
0.68025038E-01
0.52149415E-01
0.39751019E-01
0.30293828E-01
0.23366788E-01
0.18059719E-01
0.14032776E-01
0.10994274E-01
0.86443890E-02
0.68376535E-02
0.55049723E-02
0.43813894E-02
0.35530038E-02
0.28957252E-02
0.23562862E-02
0.19367095E-02
0.15936127E-02
0.13161898E-02
0.10965564E-02
0.92058512E-03
0.76794374E-03
0.65098127E-03
0.55240752E-03
0.46777594E-03
0.40110026E-03
0.34207213E-03
0.29168528E-03
0.25267151E-03
0.21736590E-03
0.18763260E-03
0.16212821E-03
0.14032275E-03
0.12153021E-03
0.10565627E-03
0.91955480E-04
0.80150407E-04
0.69629583E-04
0.60730814E-04
0.53089192E-04
0.46213456E-04
0.40474457E-04
0.35290992E-04
0.30809795E-04
0.26947921E-04
0.23553644E-04
0.20713829E-04
0.18170533E-04
0.15893218E-04
0.13886540E-04
0.12188078E-04
0.10646226E-04
0.93391709E-05
0.81826884E-05
0.71614568E-05
0.62761687E-05
0.54906000E-05
0.47892677E-05
0.41907242E-05
0.36507836E-05
0.31893435E-05
0.28051186E-05
0.24569988E-05
0.21545650E-05
0.18838551E-05
0.16469156E-05
0.14389633E-05
0.12615287E-05
0.10987204E-05
0.95704320E-06
0.83351347E-06
0.72579593E-06
0.62998060E-06
0.54686154E-06
0.47547150E-06
0.41124525E-06
0.35707106E-06
0.30964856E-06
0.26844555E-06
0.23231748E-06
0.20102397E-06
