atomic number =   58
effective nuclear charge =   58
electron count =   56
net charge =    2
basis set = approximate basis set limit (UGBS)      
exchange correlation functional = PW91                
cutoff radius (picometer) =  300
number of shells =   50
prepared by = Thomas A. Manz      
prepared date = 2011                
magnetization =    2
density in atomic units:
0.27834457E+05
0.18930522E+03
0.60013111E+02
0.16950054E+02
0.10443596E+02
0.73267503E+01
0.43947072E+01
0.24861572E+01
0.13945377E+01
0.85284525E+00
0.57522076E+00
0.42280680E+00
0.33247530E+00
0.26320845E+00
0.20845878E+00
0.16251829E+00
0.12490479E+00
0.95944755E-01
0.72567485E-01
0.54328896E-01
0.40442828E-01
0.29922554E-01
0.22096513E-01
0.16265510E-01
0.11911125E-01
0.87042451E-02
0.63560088E-02
0.46825600E-02
0.34313789E-02
0.25134995E-02
0.18533071E-02
0.13699556E-02
0.10206460E-02
0.76378247E-03
0.57526882E-03
0.43872400E-03
0.33800490E-03
0.26251402E-03
0.20504004E-03
0.16228852E-03
0.13021805E-03
0.10508371E-03
0.85858090E-04
0.70926457E-04
0.59114289E-04
0.49787392E-04
0.42278683E-04
0.36223446E-04
0.31220567E-04
0.27143600E-04
