atomic number =   92
effective nuclear charge =   92
electron count =   91
net charge =    1
basis set = approximate basis set limit (UGBS)      
exchange correlation functional = PW91                
cutoff radius (picometer) =  300
number of shells =   50
prepared by = Thomas A. Manz      
prepared date = 2011                
magnetization =    5
density in atomic units:
0.12000066E+06
0.31169849E+03
0.11230196E+03
0.42642933E+02
0.15185280E+02
0.80925951E+01
0.52373013E+01
0.33255637E+01
0.20233502E+01
0.12760849E+01
0.84460926E+00
0.59621334E+00
0.45134822E+00
0.34539831E+00
0.26774141E+00
0.20544425E+00
0.15673652E+00
0.12011057E+00
0.91226719E-01
0.69073826E-01
0.52220583E-01
0.39596573E-01
0.30225491E-01
0.23153687E-01
0.17862258E-01
0.13887455E-01
0.10916959E-01
0.87416824E-02
0.70426348E-02
0.57439269E-02
0.47445889E-02
0.39636581E-02
0.33476320E-02
0.28487085E-02
0.24461551E-02
0.21165321E-02
0.18443338E-02
0.16138187E-02
0.14129457E-02
0.12435096E-02
0.10979684E-02
0.96890714E-03
0.85765141E-03
0.75986254E-03
0.67370583E-03
0.59800735E-03
0.53063710E-03
0.47107419E-03
0.41810240E-03
0.37167530E-03
