atomic number =   42
effective nuclear charge =   42
electron count =   36
net charge =    6
basis set = approximate basis set limit (UGBS)      
exchange correlation functional = PW91PW91            
cutoff radius (picometer) =  300
number of shells =   50
prepared by = Thomas A. Manz      
prepared date = July 2010           
magnetization =    0
density in atomic units:
0.97992080E+04
0.11658389E+03
0.43584610E+02
0.22794250E+02
0.94769592E+01
0.35592632E+01
0.17522200E+01
0.11969633E+01
0.90040046E+00
0.67317647E+00
0.47558326E+00
0.31812456E+00
0.21048774E+00
0.13393025E+00
0.83768070E-01
0.51200692E-01
0.30621866E-01
0.18581700E-01
0.11066623E-01
0.65545691E-02
0.38873916E-02
0.23093759E-02
0.13867992E-02
0.84010622E-03
0.51259017E-03
0.31563936E-03
0.19671644E-03
0.12498509E-03
0.79067519E-04
0.49852493E-04
0.31436193E-04
0.19522515E-04
0.11924206E-04
0.70128531E-05
0.38471467E-05
0.19659910E-05
0.85947221E-06
0.31874785E-06
0.22832293E-06
0.55923856E-07
0.00000000E+00
0.00000000E+00
0.00000000E+00
0.00000000E+00
0.00000000E+00
0.00000000E+00
0.00000000E+00
0.00000000E+00
0.00000000E+00
0.00000000E+00
