atomic number =   92
effective nuclear charge =   92
electron count =   86
net charge =    6
basis set = approximate basis set limit (UGBS)      
exchange correlation functional = PW91                
cutoff radius (picometer) =  300
number of shells =   50
prepared by = Thomas A. Manz      
prepared date = 2011                
magnetization =    0
density in atomic units:
0.12001030E+06
0.31112378E+03
0.11224409E+03
0.42632442E+02
0.15306526E+02
0.81131735E+01
0.50798817E+01
0.30920973E+01
0.18089905E+01
0.11126297E+01
0.73705620E+00
0.52531689E+00
0.39749691E+00
0.30015635E+00
0.22473998E+00
0.16433638E+00
0.11722440E+00
0.83415374E-01
0.58000222E-01
0.39805323E-01
0.27117431E-01
0.18345769E-01
0.12407114E-01
0.83693471E-02
0.56221304E-02
0.37668941E-02
0.25268558E-02
0.17125859E-02
0.11532208E-02
0.77544048E-03
0.52521541E-03
0.35610268E-03
0.24345552E-03
0.16692451E-03
0.11510251E-03
0.80402060E-04
0.56705416E-04
0.40187999E-04
0.28523475E-04
0.20418163E-04
0.14727331E-04
0.10587045E-04
0.76451342E-05
0.54975335E-05
0.39291222E-05
0.28179286E-05
0.20341201E-05
0.14547422E-05
0.10373114E-05
0.82247777E-06
