atomic number =   14
effective nuclear charge =   14
electron count =   10
net charge =    4
basis set = approximate basis set limit (UGBS)      
exchange correlation functional = PW91PW91            
cutoff radius (picometer) =  300
number of shells =   50
prepared by = Thomas A. Manz      
prepared date = July 2010           
magnetization =    0
density in atomic units:
0.36919257E+03
0.25057600E+02
0.11259834E+02
0.69542589E+01
0.39424007E+01
0.19819952E+01
0.96746504E+00
0.48210704E+00
0.23253475E+00
0.11235965E+00
0.52964818E-01
0.24487020E-01
0.11916657E-01
0.56950063E-02
0.27298764E-02
0.12968382E-02
0.60498767E-03
0.29238546E-03
0.13859644E-03
0.65200547E-04
0.30534469E-04
0.14135151E-04
0.64679898E-05
0.29600210E-05
0.13375405E-05
0.59825106E-06
0.26750598E-06
0.12122318E-06
0.54203607E-07
0.24003260E-07
0.10577126E-07
0.45851478E-08
0.19417306E-08
0.80560186E-09
0.32049438E-09
0.14964831E-09
0.69053416E-10
0.26680961E-10
0.95163790E-11
0.33436979E-11
0.12007230E-11
0.48756566E-12
0.15714281E-12
0.50792764E-13
0.16239211E-13
0.55194725E-14
0.17699464E-14
0.61022980E-15
0.21746762E-15
0.84867619E-16
