atomic number =   13
effective nuclear charge =   13
electron count =   10
net charge =    3
basis set = approximate basis set limit (UGBS)      
exchange correlation functional = PW91PW91            
cutoff radius (picometer) =  300
number of shells =   50
prepared by = Thomas A. Manz      
prepared date = July 2010           
magnetization =    0
density in atomic units:
0.30805057E+03
0.23141726E+02
0.93272371E+01
0.60677390E+01
0.37447021E+01
0.20675714E+01
0.11078893E+01
0.60290480E+00
0.31884012E+00
0.16900477E+00
0.87661944E-01
0.44781141E-01
0.23939077E-01
0.12616559E-01
0.66884626E-02
0.35264024E-02
0.18383883E-02
0.99008915E-03
0.52572775E-03
0.27842596E-03
0.14753248E-03
0.77885568E-04
0.41206175E-04
0.21715698E-04
0.11319696E-04
0.58752962E-05
0.30392148E-05
0.16103265E-05
0.85012528E-06
0.44732826E-06
0.24027921E-06
0.12880956E-06
0.73132149E-07
0.41038692E-07
0.23145423E-07
0.17932740E-07
0.11423963E-07
0.71803350E-08
0.45345105E-08
0.29020146E-08
0.19163502E-08
0.12349832E-08
0.79582435E-09
0.50079169E-09
0.31473416E-09
0.19386463E-09
0.11942647E-09
0.69588058E-10
0.40137751E-10
0.23080446E-10
