atomic number =    6
effective nuclear charge =    6
electron count =    6
net charge =    0
basis set = approximate basis set limit (UGBS)      
exchange correlation functional = PW91PW91            
cutoff radius (picometer) =  300
number of shells =   50
prepared by = Thomas A. Manz      
prepared date = April 2010          
magnetization =    2
density in atomic units:
0.52193027E+02
0.14292042E+02
0.43499985E+01
0.14094950E+01
0.57105923E+00
0.32090107E+00
0.24820998E+00
0.21509653E+00
0.18685406E+00
0.15990096E+00
0.13325554E+00
0.10878829E+00
0.88858567E-01
0.71524747E-01
0.57337299E-01
0.45559749E-01
0.35958599E-01
0.28615423E-01
0.22612421E-01
0.17844625E-01
0.14090713E-01
0.11125186E-01
0.88097304E-02
0.69806320E-02
0.55299038E-02
0.43811826E-02
0.34800377E-02
0.27841220E-02
0.22212868E-02
0.17725893E-02
0.14207991E-02
0.11392187E-02
0.91694755E-03
0.73814025E-03
0.59532595E-03
0.48234541E-03
0.39200962E-03
0.31864137E-03
0.25860048E-03
0.21068573E-03
0.17225579E-03
0.14048572E-03
0.11495516E-03
0.94293500E-04
0.77320183E-04
0.63589352E-04
0.52285312E-04
0.43025706E-04
0.35422752E-04
0.29220240E-04
