atomic number =   92
effective nuclear charge =   92
electron count =   93
net charge =   -1
basis set = approximate basis set limit (UGBS)      
exchange correlation functional = PW91                
cutoff radius (picometer) =  300
number of shells =   50
prepared by = Thomas A. Manz      
prepared date = 2011                
magnetization =    5
density in atomic units:
0.12000223E+06
0.31171432E+03
0.11228606E+03
0.42643898E+02
0.15198845E+02
0.81026487E+01
0.52298913E+01
0.33058820E+01
0.20061862E+01
0.12575618E+01
0.83318490E+00
0.58903646E+00
0.44583401E+00
0.34295171E+00
0.26592523E+00
0.20540464E+00
0.15732594E+00
0.12167787E+00
0.93337700E-01
0.71608692E-01
0.55241816E-01
0.42841442E-01
0.33598877E-01
0.26662385E-01
0.21393478E-01
0.17403852E-01
0.14388683E-01
0.12124077E-01
0.10332511E-01
0.89105470E-02
0.77929362E-02
0.68777953E-02
0.61307522E-02
0.55032237E-02
0.49629682E-02
0.45048115E-02
0.41047898E-02
0.37467889E-02
0.34224270E-02
0.31328578E-02
0.28730354E-02
0.26318301E-02
0.24131876E-02
0.22140732E-02
0.20293002E-02
0.18609223E-02
0.17046469E-02
0.15604991E-02
0.14276615E-02
0.13062182E-02
