atomic number =   62
effective nuclear charge =   62
electron count =   58
net charge =    4
basis set = approximate basis set limit (UGBS)      
exchange correlation functional = PW91PW91            
cutoff radius (picometer) =  300
number of shells =   50
prepared by = Thomas A. Manz      
prepared date = July 2010           
magnetization =    4
density in atomic units:
0.34552988E+05
0.21017189E+03
0.57114784E+02
0.19322592E+02
0.13453529E+02
0.82589903E+01
0.43458800E+01
0.23305697E+01
0.13479887E+01
0.88355076E+00
0.63245839E+00
0.46779495E+00
0.35355046E+00
0.26252523E+00
0.19168331E+00
0.13701056E+00
0.95639877E-01
0.67012958E-01
0.45994375E-01
0.31250797E-01
0.21136655E-01
0.14204373E-01
0.95477793E-02
0.64056171E-02
0.42767446E-02
0.28470138E-02
0.18965567E-02
0.12751202E-02
0.85089856E-03
0.56579302E-03
0.37837794E-03
0.25241548E-03
0.16944125E-03
0.11371431E-03
0.76375582E-04
0.51723371E-04
0.35175188E-04
0.23882307E-04
0.16116819E-04
0.10923784E-04
0.74463487E-05
0.50015424E-05
0.33381727E-05
0.21976457E-05
0.14253820E-05
0.89653838E-06
0.56962409E-06
0.34798549E-06
0.20881993E-06
0.12814330E-06
