atomic number =   92
effective nuclear charge =   92
electron count =   92
net charge =    0
basis set = approximate basis set limit (UGBS)      
exchange correlation functional = PW91PW91            
cutoff radius (picometer) =  300
number of shells =   50
prepared by = Thomas A. Manz      
prepared date = July 2010           
magnetization =    4
density in atomic units:
0.12000265E+06
0.31170578E+03
0.11229598E+03
0.42644051E+02
0.15191887E+02
0.80949831E+01
0.52331629E+01
0.33190954E+01
0.20195165E+01
0.12726310E+01
0.84316522E+00
0.59525597E+00
0.44997367E+00
0.34419894E+00
0.26621240E+00
0.20424449E+00
0.15573095E+00
0.11958243E+00
0.91135919E-01
0.69429383E-01
0.53046901E-01
0.40788632E-01
0.31715911E-01
0.24903195E-01
0.19793391E-01
0.15946265E-01
0.13055221E-01
0.10909269E-01
0.92099579E-02
0.78762639E-02
0.68224212E-02
0.59651094E-02
0.52614096E-02
0.46646390E-02
0.41557741E-02
0.37190567E-02
0.33388117E-02
0.29996089E-02
0.26912862E-02
0.24186168E-02
0.21751516E-02
0.19513274E-02
0.17515176E-02
0.15713836E-02
0.14076951E-02
0.12608001E-02
0.11273146E-02
0.10069680E-02
0.89839438E-03
0.80163899E-03
