atomic number =   77
effective nuclear charge =   77
electron count =   80
net charge =   -3
basis set = approximate basis set limit (UGBS)      
exchange correlation functional = PW91PW91            
cutoff radius (picometer) =  500
number of shells =  100
prepared by = Thomas A. Manz      
prepared date = July 2010           
magnetization =    0
density in atomic units:
0.47976700E+06
0.54552209E+03
0.11832764E+03
0.54386990E+02
0.33578941E+02
0.18132521E+02
0.90353680E+01
0.47074986E+01
0.29225428E+01
0.20349853E+01
0.14943354E+01
0.11322501E+01
0.85020751E+00
0.63280565E+00
0.47974548E+00
0.36621967E+00
0.27840334E+00
0.21533962E+00
0.16880353E+00
0.13331465E+00
0.10737431E+00
0.88067129E-01
0.72779246E-01
0.60811277E-01
0.51504239E-01
0.43982331E-01
0.37861872E-01
0.32925516E-01
0.28757347E-01
0.25289219E-01
0.22381131E-01
0.19850885E-01
0.17688524E-01
0.15814919E-01
0.14167228E-01
0.12697569E-01
0.11389462E-01
0.10227812E-01
0.92045162E-02
0.82785254E-02
0.74466574E-02
0.66986829E-02
0.60208030E-02
0.54234117E-02
0.48812614E-02
0.43788771E-02
0.39306558E-02
0.35335484E-02
0.31693887E-02
0.28408733E-02
0.25445013E-02
0.22755621E-02
0.20368653E-02
0.18236812E-02
0.16311301E-02
0.14573705E-02
0.13002846E-02
0.11598241E-02
0.10344883E-02
0.92283031E-03
0.82269247E-03
0.73314278E-03
0.65357320E-03
0.58234012E-03
0.51867974E-03
0.46272957E-03
0.41276272E-03
0.36764506E-03
0.32751309E-03
0.29165662E-03
0.26014427E-03
0.23213292E-03
0.20708751E-03
0.18496602E-03
0.16511562E-03
0.14743360E-03
0.13176382E-03
0.11779898E-03
0.10542376E-03
0.94489864E-04
0.84668303E-04
0.75875141E-04
0.68031724E-04
0.61050472E-04
0.54887911E-04
0.49420640E-04
0.44492441E-04
0.40086150E-04
0.36116242E-04
0.32519049E-04
0.29340817E-04
0.26487123E-04
0.23902163E-04
0.21613247E-04
0.19547362E-04
0.17676119E-04
0.16007376E-04
0.14474311E-04
0.13086508E-04
0.11845268E-04
