atomic number =   23
effective nuclear charge =   23
electron count =   22
net charge =    1
basis set = approximate basis set limit (UGBS)      
exchange correlation functional = PW91PW91            
cutoff radius (picometer) =  500
number of shells =  100
prepared by = Thomas A. Manz      
prepared date = July 2010           
magnetization =    4
density in atomic units:
0.92302197E+04
0.10422458E+03
0.40899685E+02
0.13578262E+02
0.47351146E+01
0.26884143E+01
0.20784154E+01
0.17542011E+01
0.14512526E+01
0.11385665E+01
0.86217344E+00
0.64331973E+00
0.46763358E+00
0.33415085E+00
0.24233679E+00
0.17686668E+00
0.12759957E+00
0.93463026E-01
0.69303662E-01
0.51445302E-01
0.39049938E-01
0.30125760E-01
0.23421979E-01
0.18463591E-01
0.14759338E-01
0.11922701E-01
0.97208014E-02
0.80372589E-02
0.66752569E-02
0.55975728E-02
0.47165304E-02
0.40079886E-02
0.34140120E-02
0.29249599E-02
0.25193486E-02
0.21685234E-02
0.18721941E-02
0.16215624E-02
0.14100393E-02
0.12257767E-02
0.10702679E-02
0.93382766E-03
0.81577472E-03
0.71734696E-03
0.63012826E-03
0.55282435E-03
0.48663019E-03
0.42918319E-03
0.37859322E-03
0.33421154E-03
0.29531147E-03
0.26086564E-03
0.23110499E-03
0.20505533E-03
0.18195318E-03
0.16148051E-03
0.14332273E-03
0.12722114E-03
0.11300254E-03
0.10051324E-03
0.89325767E-04
0.79442434E-04
0.70715520E-04
0.62922751E-04
0.55988399E-04
0.49898365E-04
0.44475892E-04
0.39607326E-04
0.35283723E-04
0.31388805E-04
0.27985890E-04
0.24937863E-04
0.22226830E-04
0.19825038E-04
0.17640225E-04
0.15689086E-04
0.13950731E-04
0.12386053E-04
0.11009293E-04
0.97959801E-05
0.87120061E-05
0.77434688E-05
0.68846957E-05
0.61237283E-05
0.54549701E-05
0.48605102E-05
0.43289397E-05
0.38393268E-05
0.34024740E-05
0.30132112E-05
0.26713196E-05
0.23664602E-05
0.20969817E-05
0.18694732E-05
0.16680312E-05
0.14893286E-05
0.13297258E-05
0.11864233E-05
0.10584859E-05
0.94529798E-06
