atomic number =   74
effective nuclear charge =   74
electron count =   74
net charge =    0
basis set = approximate basis set limit (UGBS)      
exchange correlation functional = PW91PW91            
cutoff radius (picometer) =  500
number of shells =  100
prepared by = Thomas A. Manz      
prepared date = July 2010           
magnetization =    4
density in atomic units:
0.42251800E+06
0.51284473E+03
0.11796514E+03
0.47361824E+02
0.31407085E+02
0.18529581E+02
0.97545395E+01
0.50715613E+01
0.29990051E+01
0.19774630E+01
0.13984342E+01
0.10385009E+01
0.77046835E+00
0.56782746E+00
0.42600498E+00
0.32121053E+00
0.24030685E+00
0.18252850E+00
0.14032742E+00
0.10851290E+00
0.85692078E-01
0.68980232E-01
0.56014858E-01
0.46064630E-01
0.38429525E-01
0.32337327E-01
0.27418876E-01
0.23475589E-01
0.20153387E-01
0.17395761E-01
0.15079720E-01
0.13084475E-01
0.11381458E-01
0.99210935E-02
0.86552473E-02
0.75408244E-02
0.65686516E-02
0.57244403E-02
0.49984213E-02
0.43583955E-02
0.38014113E-02
0.33145158E-02
0.28875587E-02
0.25243117E-02
0.22048021E-02
0.19190874E-02
0.16730278E-02
0.14621636E-02
0.12754954E-02
0.11126208E-02
0.97053620E-03
0.84573939E-03
0.73843711E-03
0.64547674E-03
0.56398992E-03
0.49254519E-03
0.42978898E-03
0.37512899E-03
0.32759403E-03
0.28633821E-03
0.25018866E-03
0.21861010E-03
0.19120543E-03
0.16716609E-03
0.14610434E-03
0.12795627E-03
0.11207656E-03
0.98018347E-04
0.85760243E-04
0.74986936E-04
0.65692460E-04
0.57565489E-04
0.50432544E-04
0.44222703E-04
0.38734899E-04
0.33918928E-04
0.29717276E-04
0.26018990E-04
0.22802216E-04
0.19983283E-04
0.17491919E-04
0.15305566E-04
0.13387450E-04
0.11704024E-04
0.10235784E-04
0.89283021E-05
0.77848354E-05
0.67902415E-05
0.59231929E-05
0.51638781E-05
0.45055140E-05
0.39321649E-05
0.34286802E-05
0.29833159E-05
0.25951967E-05
0.22721465E-05
0.19931465E-05
0.17471446E-05
0.15300396E-05
0.13418052E-05
