atomic number =   77
effective nuclear charge =   77
electron count =   75
net charge =    2
basis set = approximate basis set limit (UGBS)      
exchange correlation functional = PW91PW91            
cutoff radius (picometer) =  400
number of shells =   75
prepared by = Thomas A. Manz      
prepared date = July 2010           
magnetization =    3
density in atomic units:
0.69290961E+05
0.38963327E+03
0.94172005E+02
0.51742966E+02
0.31029760E+02
0.14591318E+02
0.69048243E+01
0.37399695E+01
0.23664327E+01
0.16657006E+01
0.12196397E+01
0.89536756E+00
0.65244704E+00
0.47535080E+00
0.34578386E+00
0.25124216E+00
0.18252060E+00
0.13345855E+00
0.98786324E-01
0.73970437E-01
0.55854794E-01
0.42487804E-01
0.32444060E-01
0.25043584E-01
0.19474166E-01
0.15257390E-01
0.12055794E-01
0.95902774E-02
0.76516988E-02
0.61284974E-02
0.49781916E-02
0.40532202E-02
0.32949692E-02
0.26871806E-02
0.22093938E-02
0.18209805E-02
0.15011540E-02
0.12422098E-02
0.10339317E-02
0.86019136E-03
0.71568438E-03
0.59873622E-03
0.50174101E-03
0.42107041E-03
0.35415820E-03
0.29848603E-03
0.25175326E-03
0.21286338E-03
0.17964460E-03
0.15201750E-03
0.12869968E-03
0.10932090E-03
0.92757269E-04
0.78826262E-04
0.67179550E-04
0.57225192E-04
0.48735659E-04
0.41563293E-04
0.35492030E-04
0.30301666E-04
0.25856083E-04
0.22120450E-04
0.18917450E-04
0.16180014E-04
0.13816561E-04
0.11788436E-04
0.10079993E-04
0.85963493E-05
0.73299993E-05
0.62520216E-05
0.53346535E-05
0.45363090E-05
0.38402286E-05
0.32379730E-05
0.27282201E-05
