atomic number =   68
effective nuclear charge =   68
electron count =   66
net charge =    2
basis set = approximate basis set limit (UGBS)      
exchange correlation functional = PW91                
cutoff radius (picometer) =  300
number of shells =   50
prepared by = Thomas A. Manz      
prepared date = 2011                
magnetization =    2
density in atomic units:
0.46561379E+05
0.23703954E+03
0.56771339E+02
0.27268867E+02
0.17960802E+02
0.93593321E+01
0.45834851E+01
0.25040402E+01
0.15219609E+01
0.10263641E+01
0.72460741E+00
0.51756322E+00
0.37765139E+00
0.27226087E+00
0.19509025E+00
0.13833481E+00
0.96734427E-01
0.68543419E-01
0.47953103E-01
0.33468287E-01
0.23386069E-01
0.16317826E-01
0.11435020E-01
0.80268886E-02
0.56315041E-02
0.39506443E-02
0.27856133E-02
0.19837792E-02
0.14090326E-02
0.10003317E-02
0.71580213E-03
0.51189982E-03
0.36867234E-03
0.26578020E-03
0.19188110E-03
0.13979425E-03
0.10236086E-03
0.74933880E-04
0.54805336E-04
0.40264851E-04
0.29719180E-04
0.21840462E-04
0.16068117E-04
0.11854791E-04
0.86740756E-05
0.63520361E-05
0.46153436E-05
0.33371061E-05
0.24101123E-05
0.17359607E-05
