atomic number =   77
effective nuclear charge =   77
electron count =   71
net charge =    6
basis set = approximate basis set limit (UGBS)      
exchange correlation functional = PW91PW91            
cutoff radius (picometer) =  500
number of shells =  100
prepared by = Thomas A. Manz      
prepared date = July 2010           
magnetization =    3
density in atomic units:
0.47976800E+06
0.54527545E+03
0.11841516E+03
0.54342854E+02
0.33541641E+02
0.18138258E+02
0.90602007E+01
0.47125955E+01
0.28878205E+01
0.19565384E+01
0.13809569E+01
0.99658132E+00
0.70351821E+00
0.48515472E+00
0.33804017E+00
0.23484315E+00
0.15988532E+00
0.10994028E+00
0.76095678E-01
0.52523483E-01
0.36970396E-01
0.26532751E-01
0.19132104E-01
0.13973517E-01
0.10396004E-01
0.78271059E-02
0.59674326E-02
0.46340409E-02
0.36286397E-02
0.28807775E-02
0.23147133E-02
0.18739987E-02
0.15301683E-02
0.12592749E-02
0.10421574E-02
0.86362049E-03
0.71769714E-03
0.59833634E-03
0.50110946E-03
0.41953215E-03
0.35205082E-03
0.29548435E-03
0.24812485E-03
0.20956235E-03
0.17690728E-03
0.14888280E-03
0.12569921E-03
0.10647399E-03
0.90073394E-04
0.76278928E-04
0.64655942E-04
0.54831962E-04
0.46680649E-04
0.39862258E-04
0.34074194E-04
0.29184972E-04
0.25031881E-04
0.21532491E-04
0.18540995E-04
0.16018086E-04
0.13841660E-04
0.11977239E-04
0.10397004E-04
0.90403510E-05
0.78652301E-05
0.68759855E-05
0.60041648E-05
0.52304331E-05
0.45774736E-05
0.39980450E-05
0.35059688E-05
0.30802623E-05
0.27043693E-05
0.23786220E-05
0.20946040E-05
0.18459959E-05
0.16259273E-05
0.14238836E-05
0.12456700E-05
0.10934730E-05
0.96199562E-06
0.84590829E-06
0.74287288E-06
0.65254420E-06
0.57619957E-06
0.50352730E-06
0.44301640E-06
0.39026037E-06
0.34124875E-06
0.29880437E-06
0.26241631E-06
0.23011773E-06
0.20111983E-06
0.17634233E-06
0.15455281E-06
0.13497252E-06
0.11796846E-06
0.10292361E-06
0.90004711E-07
0.78315260E-07
