atomic number =   13
effective nuclear charge =   13
electron count =    9
net charge =    4
basis set = approximate basis set limit (UGBS)      
exchange correlation functional = PW91PW91            
cutoff radius (picometer) =  300
number of shells =   50
prepared by = Thomas A. Manz      
prepared date = July 2010           
magnetization =    1
density in atomic units:
0.30882687E+03
0.22476128E+02
0.87834158E+01
0.56585569E+01
0.34321215E+01
0.18400207E+01
0.94872588E+00
0.49450547E+00
0.24870567E+00
0.12484158E+00
0.61009862E-01
0.29205801E-01
0.14654126E-01
0.72181872E-02
0.35658942E-02
0.17469625E-02
0.84211386E-03
0.42034462E-03
0.20614783E-03
0.10047472E-03
0.48788417E-04
0.23461305E-04
0.11204686E-04
0.53392018E-05
0.25183447E-05
0.11853717E-05
0.56030325E-06
0.27320539E-06
0.13280309E-06
0.66240318E-07
0.34058417E-07
0.17925283E-07
0.97315880E-08
0.54059304E-08
0.30726617E-08
0.17572001E-08
0.10165262E-08
0.66091121E-09
0.39798934E-09
0.23016386E-09
0.13286705E-09
0.74326434E-10
0.41184816E-10
0.23055304E-10
0.12266007E-10
0.64958976E-11
0.34127800E-11
0.17463463E-11
0.89207114E-12
0.44682706E-12
