atomic number =    9
effective nuclear charge =    9
electron count =    8
net charge =    1
basis set = approximate basis set limit (UGBS)      
exchange correlation functional = PW91                
cutoff radius (picometer) =  300
number of shells =   50
prepared by = Thomas A. Manz      
prepared date = 2011                
magnetization =    2
density in atomic units:
0.13227910E+03
0.18764277E+02
0.42820840E+01
0.19914263E+01
0.14540884E+01
0.10953773E+01
0.79866660E+00
0.57268918E+00
0.39898929E+00
0.27709123E+00
0.18979518E+00
0.12939870E+00
0.90833917E-01
0.63511834E-01
0.44823486E-01
0.31655662E-01
0.22371490E-01
0.16155794E-01
0.11642496E-01
0.84306430E-02
0.61466615E-02
0.45039840E-02
0.33281208E-02
0.24717806E-02
0.18414407E-02
0.13766192E-02
0.10348849E-02
0.78657723E-03
0.59679500E-03
0.45354833E-03
0.34689537E-03
0.26565697E-03
0.20455521E-03
0.15755977E-03
0.12156750E-03
0.94306321E-04
0.73367512E-04
0.57027530E-04
0.44190114E-04
0.34363315E-04
0.26839427E-04
0.20876925E-04
0.16269845E-04
0.12697316E-04
0.98930559E-05
0.77208988E-05
0.59905847E-05
0.46361511E-05
0.35876917E-05
0.27844883E-05
