atomic number =   62
effective nuclear charge =   62
electron count =   59
net charge =    3
basis set = approximate basis set limit (UGBS)      
exchange correlation functional = PW91PW91            
cutoff radius (picometer) =  300
number of shells =   50
prepared by = Thomas A. Manz      
prepared date = July 2010           
magnetization =    5
density in atomic units:
0.34550035E+05
0.20987759E+03
0.57379932E+02
0.19350368E+02
0.13555990E+02
0.83624945E+01
0.44661517E+01
0.24192991E+01
0.13886567E+01
0.90819633E+00
0.64151901E+00
0.47422808E+00
0.36210728E+00
0.27204674E+00
0.20299695E+00
0.14818709E+00
0.10637923E+00
0.76530561E-01
0.54148231E-01
0.37981365E-01
0.26484353E-01
0.18384822E-01
0.12761552E-01
0.88230260E-02
0.60752328E-02
0.41669281E-02
0.28575151E-02
0.19770283E-02
0.13564110E-02
0.92840753E-03
0.63788414E-03
0.43780517E-03
0.30181545E-03
0.20784196E-03
0.14347061E-03
0.99702826E-04
0.69594818E-04
0.48575654E-04
0.33726694E-04
0.23541461E-04
0.16508975E-04
0.11467759E-04
0.79815618E-05
0.55438418E-05
0.38189964E-05
0.26341672E-05
0.17901378E-05
0.12114516E-05
0.81340340E-06
0.53861845E-06
