atomic number =   64
effective nuclear charge =   64
electron count =   60
net charge =    4
basis set = approximate basis set limit (UGBS)      
exchange correlation functional = PW91                
cutoff radius (picometer) =  300
number of shells =   50
prepared by = Thomas A. Manz      
prepared date = 2011                
magnetization =    6
density in atomic units:
0.38290988E+05
0.21969160E+03
0.56318493E+02
0.21487064E+02
0.15024167E+02
0.86357508E+01
0.43823166E+01
0.23542893E+01
0.13860255E+01
0.92679000E+00
0.66006845E+00
0.48007083E+00
0.35517719E+00
0.25713381E+00
0.18362632E+00
0.12831973E+00
0.87746494E-01
0.60335990E-01
0.40695943E-01
0.27223608E-01
0.18137280E-01
0.12032289E-01
0.79980334E-02
0.53096474E-02
0.35152796E-02
0.23225967E-02
0.15380509E-02
0.10294005E-02
0.68416179E-03
0.45355523E-03
0.30235481E-03
0.20118139E-03
0.13459237E-03
0.89941168E-04
0.60207909E-04
0.40602332E-04
0.27456530E-04
0.18580226E-04
0.12513185E-04
0.84709345E-05
0.57455545E-05
0.38723642E-05
0.26212415E-05
0.17703485E-05
0.11826473E-05
0.79314844E-06
0.52107202E-06
0.33560747E-06
0.20791443E-06
0.12410699E-06
