atomic number =   78
effective nuclear charge =   78
electron count =   78
net charge =    0
basis set = approximate basis set limit (UGBS)      
exchange correlation functional = PW91PW91            
cutoff radius (picometer) =  300
number of shells =   50
prepared by = Thomas A. Manz      
prepared date = July 2010           
magnetization =    2
density in atomic units:
0.72179391E+05
0.27177237E+03
0.72056450E+02
0.42006123E+02
0.19984142E+02
0.80695667E+01
0.39256735E+01
0.24653881E+01
0.17044586E+01
0.12164186E+01
0.85891253E+00
0.59840435E+00
0.42747331E+00
0.30507565E+00
0.22068253E+00
0.16081035E+00
0.11881303E+00
0.90088718E-01
0.68935908E-01
0.53044014E-01
0.41420143E-01
0.32536536E-01
0.25742047E-01
0.20578714E-01
0.16441967E-01
0.13247713E-01
0.10681294E-01
0.87029738E-02
0.70790811E-02
0.57512261E-02
0.46985731E-02
0.38395172E-02
0.31508484E-02
0.25859200E-02
0.21230455E-02
0.17534751E-02
0.14504982E-02
0.11997322E-02
0.99136727E-03
0.82155067E-03
0.68363675E-03
0.56729402E-03
0.47188048E-03
0.39342194E-03
0.32766451E-03
0.27355389E-03
0.22824667E-03
0.19058204E-03
0.15917400E-03
0.13325189E-03
