atomic number =   44
effective nuclear charge =   44
electron count =   42
net charge =    2
basis set = approximate basis set limit (UGBS)      
exchange correlation functional = PW91PW91            
cutoff radius (picometer) =  400
number of shells =   75
prepared by = Thomas A. Manz      
prepared date = July 2010           
magnetization =    4
density in atomic units:
0.11381203E+05
0.16926944E+03
0.59166374E+02
0.33883923E+02
0.15110930E+02
0.58586683E+01
0.28169305E+01
0.18838241E+01
0.14955626E+01
0.12153277E+01
0.96227777E+00
0.73695910E+00
0.54958987E+00
0.40469480E+00
0.29519078E+00
0.21384160E+00
0.15424809E+00
0.11165059E+00
0.81641674E-01
0.60328703E-01
0.44900168E-01
0.33658247E-01
0.25310751E-01
0.19258168E-01
0.14758839E-01
0.11403380E-01
0.88963294E-02
0.69852327E-02
0.55114944E-02
0.43630791E-02
0.35116964E-02
0.28330642E-02
0.22830777E-02
0.18486332E-02
0.15099632E-02
0.12371036E-02
0.10149368E-02
0.83582115E-03
0.69309777E-03
0.57488855E-03
0.47719342E-03
0.39850685E-03
0.33338924E-03
0.27952893E-03
0.23485068E-03
0.19785298E-03
0.16659011E-03
0.14088119E-03
0.11872130E-03
0.10042801E-03
0.84854779E-04
0.72013223E-04
0.60984279E-04
0.51708415E-04
0.43942087E-04
0.37298942E-04
0.31639411E-04
0.26838985E-04
0.22784905E-04
0.19342560E-04
0.16381962E-04
0.13913824E-04
0.11785203E-04
0.99876788E-05
0.84344674E-05
0.71038671E-05
0.60167504E-05
0.50552885E-05
0.42511556E-05
0.35856858E-05
0.30449373E-05
0.25793486E-05
0.21810961E-05
0.18420179E-05
0.15587588E-05
