atomic number =   94
effective nuclear charge =   94
electron count =   94
net charge =    0
basis set = approximate basis set limit (UGBS)      
exchange correlation functional = PW91PW91            
cutoff radius (picometer) =  300
number of shells =   50
prepared by = Thomas A. Manz      
prepared date = July 2010           
magnetization =    6
density in atomic units:
0.12788773E+06
0.31898853E+03
0.11663408E+03
0.41114853E+02
0.15041943E+02
0.85421724E+01
0.54977536E+01
0.34415987E+01
0.20956128E+01
0.13429483E+01
0.90413165E+00
0.64291447E+00
0.48381627E+00
0.36481529E+00
0.27735454E+00
0.20856231E+00
0.15592811E+00
0.11758310E+00
0.88130385E-01
0.66186048E-01
0.49911551E-01
0.37984032E-01
0.29306276E-01
0.22864347E-01
0.18106664E-01
0.14554479E-01
0.11911856E-01
0.99617057E-02
0.84223002E-02
0.72181509E-02
0.62648589E-02
0.54883482E-02
0.48487489E-02
0.43041669E-02
0.38386758E-02
0.34372418E-02
0.30868966E-02
0.27736083E-02
0.24881207E-02
0.22353276E-02
0.20094095E-02
0.18016808E-02
0.16161907E-02
0.14490162E-02
0.12971344E-02
0.11610077E-02
0.10373852E-02
0.92594931E-03
0.82553714E-03
0.73611480E-03
