atomic number =   22
effective nuclear charge =   22
electron count =   19
net charge =    3
basis set = approximate basis set limit (UGBS)      
exchange correlation functional = PW91                
cutoff radius (picometer) =  500
number of shells =  100
prepared by = Thomas A. Manz      
prepared date = 2011                
magnetization =    1
density in atomic units:
0.80047202E+04
0.96572502E+02
0.39113426E+02
0.13894395E+02
0.47628031E+01
0.23998647E+01
0.16978186E+01
0.14305758E+01
0.12176896E+01
0.98175424E+00
0.76083606E+00
0.57358426E+00
0.41747916E+00
0.29556540E+00
0.20992407E+00
0.14875622E+00
0.10269216E+00
0.71192123E-01
0.49440458E-01
0.33786919E-01
0.23426479E-01
0.16299982E-01
0.11295972E-01
0.78828186E-02
0.55295187E-02
0.39015848E-02
0.27650523E-02
0.19955642E-02
0.14414811E-02
0.10573720E-02
0.77260437E-03
0.58340712E-03
0.43625693E-03
0.33089265E-03
0.25646001E-03
0.19684952E-03
0.15304105E-03
0.12027754E-03
0.95223928E-04
0.74887415E-04
0.60675313E-04
0.48127178E-04
0.38468355E-04
0.31737945E-04
0.25704509E-04
0.21011643E-04
0.17454118E-04
0.14267260E-04
0.11834783E-04
0.97851380E-05
0.81043190E-05
0.66895373E-05
0.56112399E-05
0.47356129E-05
0.39939209E-05
0.33881095E-05
0.28714262E-05
0.23891444E-05
0.19938111E-05
0.16864470E-05
0.14122993E-05
0.11913228E-05
0.10058857E-05
0.83855531E-06
0.69335942E-06
0.57463495E-06
0.48063555E-06
0.39910535E-06
0.32833043E-06
0.26504321E-06
0.21689164E-06
0.17653659E-06
0.14464480E-06
0.11849271E-06
0.96324328E-07
0.78563417E-07
0.64076069E-07
0.51708280E-07
0.41905547E-07
0.34024133E-07
0.27358203E-07
0.22012937E-07
0.17620447E-07
0.14047195E-07
0.11215821E-07
0.89507068E-08
0.70748767E-08
0.56528493E-08
0.44752646E-08
0.35098102E-08
0.27627707E-08
0.21719264E-08
0.16862060E-08
0.13102577E-08
0.10188320E-08
0.78194984E-09
0.60553929E-09
0.46509008E-09
0.35618808E-09
0.27243971E-09
