atomic number =   78
effective nuclear charge =   78
electron count =   79
net charge =   -1
basis set = approximate basis set limit (UGBS)      
exchange correlation functional = PW91PW91            
cutoff radius (picometer) =  300
number of shells =   50
prepared by = Thomas A. Manz      
prepared date = July 2010           
magnetization =    1
density in atomic units:
0.72181508E+05
0.27177356E+03
0.72058968E+02
0.42001209E+02
0.19983433E+02
0.80741949E+01
0.39288652E+01
0.24646771E+01
0.16998411E+01
0.12105318E+01
0.85311651E+00
0.59439290E+00
0.42536625E+00
0.30478224E+00
0.22198789E+00
0.16343072E+00
0.12228730E+00
0.94142355E-01
0.73302701E-01
0.57605337E-01
0.45992184E-01
0.37031721E-01
0.30093357E-01
0.24716638E-01
0.20341551E-01
0.16876735E-01
0.14036699E-01
0.11787277E-01
0.98914783E-02
0.82992176E-02
0.69967974E-02
0.59009488E-02
0.49940250E-02
0.42258832E-02
0.35764824E-02
0.30399978E-02
0.25867927E-02
0.21997676E-02
0.18676660E-02
0.15888313E-02
0.13551761E-02
0.11524598E-02
0.98158803E-03
0.83722483E-03
0.71308413E-03
0.60836069E-03
0.51847985E-03
0.44194935E-03
0.37662126E-03
0.32143958E-03
