atomic number =   85
effective nuclear charge =   85
electron count =   77
net charge =    8
basis set = approximate basis set limit (UGBS)      
exchange correlation functional = PW91                
cutoff radius (picometer) =  300
number of shells =   50
prepared by = Thomas A. Manz      
prepared date = 2012                
magnetization =    1
density in atomic units:
0.94382242E+05
0.29068600E+03
0.92407364E+02
0.45664577E+02
0.17211733E+02
0.71377535E+01
0.43159814E+01
0.29840903E+01
0.19882853E+01
0.12665669E+01
0.76663792E+00
0.44409522E+00
0.26167345E+00
0.14999743E+00
0.85238114E-01
0.47641043E-01
0.26312659E-01
0.14868731E-01
0.82898196E-02
0.45625833E-02
0.25124229E-02
0.13654821E-02
0.73722063E-03
0.39678891E-03
0.20985313E-03
0.11100763E-03
0.58409056E-04
0.31453539E-04
0.16822822E-04
0.89421565E-05
0.48045467E-05
0.25623874E-05
0.13678280E-05
0.72717461E-06
0.38323253E-06
0.20231386E-06
0.11038897E-06
0.70129673E-07
0.48959755E-07
0.33229131E-07
0.24119217E-07
0.18923240E-07
0.15793960E-07
0.12902495E-07
0.10454007E-07
0.80748439E-08
0.66202275E-08
0.53467000E-08
0.43346371E-08
0.35729579E-08
