atomic number =   14
effective nuclear charge =   14
electron count =   18
net charge =   -4
basis set = approximate basis set limit (UGBS)      
exchange correlation functional = PW91PW91            
cutoff radius (picometer) =  300
number of shells =   50
prepared by = Thomas A. Manz      
prepared date = July 2010           
magnetization =    0
density in atomic units:
0.37016681E+03
0.25154873E+02
0.11394817E+02
0.70435705E+01
0.39786279E+01
0.19911464E+01
0.97539192E+00
0.50013137E+00
0.26338711E+00
0.15415259E+00
0.10275739E+00
0.78901231E-01
0.67905493E-01
0.61181631E-01
0.56247208E-01
0.51802069E-01
0.47505185E-01
0.43509215E-01
0.39573666E-01
0.35849143E-01
0.32405533E-01
0.29249186E-01
0.26419021E-01
0.23873622E-01
0.21580972E-01
0.19526478E-01
0.17700499E-01
0.16104965E-01
0.14640875E-01
0.13312530E-01
0.12122112E-01
0.11030323E-01
0.10041906E-01
0.91276160E-02
0.82856314E-02
0.75197821E-02
0.68177339E-02
0.61649974E-02
0.55540563E-02
0.49983631E-02
0.44929953E-02
0.40213978E-02
0.35950725E-02
0.32088070E-02
0.28555002E-02
0.25383194E-02
0.22499957E-02
0.19905965E-02
0.17578221E-02
0.15515600E-02
