atomic number =   10
effective nuclear charge =   10
electron count =   10
net charge =    0
basis set = approximate basis set limit (UGBS)      
exchange correlation functional = PW91PW91            
cutoff radius (picometer) =  300
number of shells =   50
prepared by = Thomas A. Manz      
prepared date = July 2010           
magnetization =    0
density in atomic units:
0.16717017E+03
0.19758400E+02
0.51109767E+01
0.29848542E+01
0.22290692E+01
0.15923092E+01
0.11004238E+01
0.75803649E+00
0.51111329E+00
0.34546879E+00
0.23086232E+00
0.15374744E+00
0.10569847E+00
0.72394922E-01
0.50081674E-01
0.34681622E-01
0.24037646E-01
0.17049326E-01
0.12068927E-01
0.85880822E-02
0.61562117E-02
0.44364776E-02
0.32252150E-02
0.23567474E-02
0.17270946E-02
0.12695563E-02
0.93797554E-03
0.70045859E-03
0.52153802E-03
0.38843919E-03
0.29090481E-03
0.21783456E-03
0.16385732E-03
0.12318407E-03
0.92646318E-04
0.70031689E-04
0.53061871E-04
0.40157647E-04
0.30266816E-04
0.22861437E-04
0.17299013E-04
0.13009570E-04
0.98042674E-05
0.74040331E-05
0.55716091E-05
0.41951344E-05
0.31363581E-05
0.23400617E-05
0.17448040E-05
0.13124223E-05
