atomic number =   44
effective nuclear charge =   44
electron count =   38
net charge =    6
basis set = approximate basis set limit (UGBS)      
exchange correlation functional = PW91PW91            
cutoff radius (picometer) =  300
number of shells =   50
prepared by = Thomas A. Manz      
prepared date = July 2010           
magnetization =    2
density in atomic units:
0.11385130E+05
0.12221584E+03
0.48682484E+02
0.22877644E+02
0.85999126E+01
0.32866857E+01
0.18870779E+01
0.14214782E+01
0.10730102E+01
0.77990162E+00
0.52590919E+00
0.34021080E+00
0.21938328E+00
0.13703084E+00
0.85795306E-01
0.53876244E-01
0.33268072E-01
0.21425296E-01
0.13595438E-01
0.90296054E-02
0.59528174E-02
0.40575019E-02
0.28913231E-02
0.20256648E-02
0.15061009E-02
0.10844825E-02
0.82867942E-03
0.63006650E-03
0.48208330E-03
0.38036235E-03
0.29825408E-03
0.23507752E-03
0.18482901E-03
0.14541093E-03
0.11634177E-03
0.91258014E-04
0.73249437E-04
0.59085465E-04
0.47067006E-04
0.37919486E-04
0.30079816E-04
0.23979477E-04
0.19330881E-04
0.15472755E-04
0.12527719E-04
0.10141518E-04
0.82345832E-05
0.66713083E-05
0.54299780E-05
0.44234425E-05
