atomic number =   44
effective nuclear charge =   44
electron count =   42
net charge =    2
basis set = approximate basis set limit (UGBS)      
exchange correlation functional = PW91PW91            
cutoff radius (picometer) =  500
number of shells =  100
prepared by = Thomas A. Manz      
prepared date = July 2010           
magnetization =    4
density in atomic units:
0.76345102E+05
0.27655777E+03
0.67089050E+02
0.36916241E+02
0.16762020E+02
0.74796538E+01
0.35575774E+01
0.21475773E+01
0.16623528E+01
0.13767966E+01
0.11239699E+01
0.90079612E+00
0.69551325E+00
0.52169329E+00
0.39270934E+00
0.29363635E+00
0.21596751E+00
0.15991120E+00
0.11869342E+00
0.87842479E-01
0.65755501E-01
0.49931981E-01
0.37880521E-01
0.28876448E-01
0.22286927E-01
0.17279057E-01
0.13478540E-01
0.10625831E-01
0.84039383E-02
0.66977912E-02
0.53976350E-02
0.43434366E-02
0.35307703E-02
0.28858455E-02
0.23639230E-02
0.19432922E-02
0.16005769E-02
0.13227058E-02
0.10998035E-02
0.91687572E-03
0.76436222E-03
0.64107811E-03
0.53829182E-03
0.45378492E-03
0.38422761E-03
0.32425800E-03
0.27429144E-03
0.23386609E-03
0.19880310E-03
0.16927860E-03
0.14427373E-03
0.12299803E-03
0.10509708E-03
0.90002373E-04
0.77078403E-04
0.66027096E-04
0.56483379E-04
0.48386224E-04
0.41503270E-04
0.35578596E-04
0.30541254E-04
0.26163876E-04
0.22438240E-04
0.19232841E-04
0.16454900E-04
0.14130724E-04
0.12119652E-04
0.10360404E-04
0.88396773E-05
0.75455582E-05
0.64290552E-05
0.54840530E-05
0.46676419E-05
0.39612323E-05
0.33949852E-05
0.29019302E-05
0.24811045E-05
0.21265946E-05
0.18158055E-05
0.15513160E-05
0.13249568E-05
0.11273348E-05
0.95941084E-06
0.81707981E-06
0.69464568E-06
0.59225954E-06
0.50413394E-06
0.43115102E-06
0.36967037E-06
0.31611702E-06
0.26973717E-06
0.23036094E-06
0.19572228E-06
0.16706466E-06
0.14190393E-06
0.12101984E-06
0.10329430E-06
0.88505338E-07
0.75782459E-07
0.64699520E-07
