atomic number =   15
effective nuclear charge =   15
electron count =   14
net charge =    1
basis set = approximate basis set limit (UGBS)      
exchange correlation functional = PW91PW91            
cutoff radius (picometer) =  300
number of shells =   50
prepared by = Thomas A. Manz      
prepared date = July 2010           
magnetization =    2
density in atomic units:
0.44099341E+03
0.27636911E+02
0.13482753E+02
0.77656727E+01
0.40033989E+01
0.18213457E+01
0.82784438E+00
0.41514030E+00
0.23180197E+00
0.15520585E+00
0.12002751E+00
0.10085670E+00
0.88049121E-01
0.76535784E-01
0.65963052E-01
0.55964213E-01
0.46816431E-01
0.39096452E-01
0.32260418E-01
0.26453638E-01
0.21615623E-01
0.17605027E-01
0.14340823E-01
0.11666127E-01
0.94738044E-02
0.76848455E-02
0.62421872E-02
0.50993594E-02
0.41527478E-02
0.33806965E-02
0.27617428E-02
0.22557487E-02
0.18483760E-02
0.15140923E-02
0.12415639E-02
0.10222029E-02
0.84382074E-03
0.69651351E-03
0.57392468E-03
0.47460967E-03
0.39371758E-03
0.32597478E-03
0.27074959E-03
0.22541291E-03
0.18761346E-03
0.15653612E-03
0.13060047E-03
0.10904361E-03
0.91092879E-04
0.76281896E-04
