atomic number =   78
effective nuclear charge =   78
electron count =   77
net charge =    1
basis set = approximate basis set limit (UGBS)      
exchange correlation functional = PW91PW91            
cutoff radius (picometer) =  500
number of shells =  100
prepared by = Thomas A. Manz      
prepared date = July 2010           
magnetization =    1
density in atomic units:
0.49981900E+06
0.55619006E+03
0.11890598E+03
0.56800449E+02
0.34035450E+02
0.17853264E+02
0.87712364E+01
0.46172466E+01
0.29394610E+01
0.20953324E+01
0.15576279E+01
0.11876984E+01
0.89235318E+00
0.66122675E+00
0.49798319E+00
0.37498277E+00
0.27992293E+00
0.21132986E+00
0.16036767E+00
0.12191147E+00
0.93695253E-01
0.73149428E-01
0.57026334E-01
0.44576101E-01
0.35227329E-01
0.27888201E-01
0.22156212E-01
0.17722921E-01
0.14187450E-01
0.11406715E-01
0.92595890E-02
0.74719596E-02
0.60864827E-02
0.49737622E-02
0.40638917E-02
0.33300449E-02
0.27298646E-02
0.22430795E-02
0.18536405E-02
0.15352865E-02
0.12702456E-02
0.10576190E-02
0.88111934E-03
0.73673209E-03
0.61879458E-03
0.51769085E-03
0.43408832E-03
0.36700338E-03
0.30927564E-03
0.26107286E-03
0.22058834E-03
0.18631644E-03
0.15770399E-03
0.13378977E-03
0.11344208E-03
0.96182790E-04
0.81386876E-04
0.68938818E-04
0.58443809E-04
0.49512280E-04
0.42010171E-04
0.35610581E-04
0.30198049E-04
0.25586371E-04
0.21633918E-04
0.18337561E-04
0.15528534E-04
0.13106973E-04
0.11057963E-04
0.93111739E-05
0.78249850E-05
0.65637073E-05
0.55034957E-05
0.46202026E-05
0.38634512E-05
0.32248697E-05
0.26913131E-05
0.22448437E-05
0.18700956E-05
0.15581587E-05
0.12971736E-05
0.10763688E-05
0.89225387E-06
0.74000172E-06
0.61439368E-06
0.50957158E-06
0.42253683E-06
0.34965868E-06
0.28897625E-06
0.23868327E-06
0.19716803E-06
0.16278280E-06
0.13410877E-06
0.11064257E-06
0.91149261E-07
0.75004444E-07
0.61832139E-07
0.50874483E-07
0.41752372E-07
0.34395214E-07
