atomic number =   23
effective nuclear charge =   23
electron count =   23
net charge =    0
basis set = approximate basis set limit (UGBS)      
exchange correlation functional = PW91PW91            
cutoff radius (picometer) =  500
number of shells =  100
prepared by = Thomas A. Manz      
prepared date = July 2010           
magnetization =    3
density in atomic units:
0.92344404E+04
0.10432744E+03
0.40933517E+02
0.13579019E+02
0.47096262E+01
0.26612480E+01
0.20848930E+01
0.17508447E+01
0.14417626E+01
0.11340933E+01
0.85011095E+00
0.63443398E+00
0.45959538E+00
0.32686564E+00
0.23776899E+00
0.17316303E+00
0.12587923E+00
0.93326017E-01
0.70128828E-01
0.53608373E-01
0.41865971E-01
0.33790100E-01
0.27592400E-01
0.22847367E-01
0.19358527E-01
0.16574677E-01
0.14348967E-01
0.12540247E-01
0.11023972E-01
0.97406106E-02
0.86928830E-02
0.77100070E-02
0.68942709E-02
0.61703851E-02
0.55129528E-02
0.49327938E-02
0.44074315E-02
0.39367052E-02
0.35223255E-02
0.31503835E-02
0.28103166E-02
0.25117293E-02
0.22411162E-02
0.20009424E-02
0.17876095E-02
0.15903921E-02
0.14152688E-02
0.12634040E-02
0.11244052E-02
0.10004611E-02
0.88973972E-03
0.79035590E-03
0.70282631E-03
0.62547869E-03
0.55624434E-03
0.49434748E-03
0.43873466E-03
0.38944534E-03
0.34580633E-03
0.30704064E-03
0.27260123E-03
0.24192721E-03
0.21480018E-03
0.19065534E-03
0.16915156E-03
0.15035381E-03
0.13364460E-03
0.11859486E-03
0.10524959E-03
0.93383620E-04
0.82996739E-04
0.73780575E-04
0.65554508E-04
0.58302459E-04
0.51807852E-04
0.46017831E-04
0.40892381E-04
0.36339621E-04
0.32326276E-04
0.28785169E-04
0.25619913E-04
0.22797922E-04
0.20287865E-04
0.18062337E-04
0.16094853E-04
0.14339583E-04
0.12770536E-04
0.11378447E-04
0.10141589E-04
0.90343301E-05
0.80589261E-05
0.71889881E-05
0.64094311E-05
0.57230181E-05
0.51094039E-05
0.45530319E-05
0.40606333E-05
0.36187791E-05
0.32254338E-05
0.28771021E-05
