atomic number =   44
effective nuclear charge =   44
electron count =   39
net charge =    5
basis set = approximate basis set limit (UGBS)      
exchange correlation functional = PW91PW91            
cutoff radius (picometer) =  300
number of shells =   50
prepared by = Thomas A. Manz      
prepared date = July 2010           
magnetization =    3
density in atomic units:
0.11383236E+05
0.12237634E+03
0.48754402E+02
0.22897844E+02
0.86045523E+01
0.32976534E+01
0.19134790E+01
0.14512349E+01
0.11163790E+01
0.82331151E+00
0.57204795E+00
0.37862074E+00
0.25120041E+00
0.16272934E+00
0.10521925E+00
0.67651570E-01
0.43596905E-01
0.28936524E-01
0.19328358E-01
0.13036917E-01
0.89952517E-02
0.63026529E-02
0.45005544E-02
0.32898141E-02
0.24274818E-02
0.18297806E-02
0.13919261E-02
0.10815080E-02
0.84362546E-03
0.65955648E-03
0.52110624E-03
0.41268673E-03
0.32904340E-03
0.26260718E-03
0.20972133E-03
0.16887365E-03
0.13612724E-03
0.10965919E-03
0.88214700E-04
0.71141018E-04
0.57654328E-04
0.46515132E-04
0.37655478E-04
0.30618263E-04
0.24827423E-04
0.20214700E-04
0.16416336E-04
0.13354626E-04
0.10877881E-04
0.88782936E-05
