atomic number =   77
effective nuclear charge =   77
electron count =   79
net charge =   -2
basis set = approximate basis set limit (UGBS)      
exchange correlation functional = PW91PW91            
cutoff radius (picometer) =  500
number of shells =  100
prepared by = Thomas A. Manz      
prepared date = July 2010           
magnetization =    1
density in atomic units:
0.47977100E+06
0.54556342E+03
0.11832391E+03
0.54387329E+02
0.33579105E+02
0.18132238E+02
0.90372086E+01
0.47105837E+01
0.29254575E+01
0.20362132E+01
0.14946021E+01
0.11310561E+01
0.84812421E+00
0.63028783E+00
0.47683391E+00
0.36338425E+00
0.27557254E+00
0.21258922E+00
0.16622145E+00
0.13078092E+00
0.10494870E+00
0.85642569E-01
0.70371963E-01
0.58435664E-01
0.49122300E-01
0.41603394E-01
0.35484590E-01
0.30562488E-01
0.26411578E-01
0.22972684E-01
0.20086145E-01
0.17612547E-01
0.15499198E-01
0.13687024E-01
0.12114978E-01
0.10722219E-01
0.94994735E-02
0.84284404E-02
0.74964347E-02
0.66625569E-02
0.59276219E-02
0.52721016E-02
0.46869204E-02
0.41804374E-02
0.37246812E-02
0.33088173E-02
0.29431926E-02
0.26219997E-02
0.23317905E-02
0.20727164E-02
0.18416566E-02
0.16342457E-02
0.14521694E-02
0.12910836E-02
0.11469047E-02
0.10179061E-02
0.90244832E-03
0.79990248E-03
0.70910557E-03
0.62897312E-03
0.55745780E-03
0.49400574E-03
0.43797944E-03
0.38810860E-03
0.34381720E-03
0.30507098E-03
0.27066708E-03
0.23977898E-03
0.21243688E-03
0.18810440E-03
0.16687470E-03
0.14807761E-03
0.13136394E-03
0.11664543E-03
0.10346283E-03
0.91801790E-04
0.81500191E-04
0.72325616E-04
0.64252294E-04
0.57147361E-04
0.50783321E-04
0.45121902E-04
0.40083225E-04
0.35625275E-04
0.31696985E-04
0.28226987E-04
0.25107503E-04
0.22327125E-04
0.19862951E-04
0.17648121E-04
0.15697435E-04
0.13963158E-04
0.12402723E-04
0.11041165E-04
0.98216588E-05
0.87264179E-05
0.77633185E-05
0.68963941E-05
0.61223873E-05
0.54369525E-05
