atomic number =   88
effective nuclear charge =   88
electron count =   86
net charge =    2
basis set = approximate basis set limit (UGBS)      
exchange correlation functional = PW91                
cutoff radius (picometer) =  300
number of shells =   50
prepared by = Thomas A. Manz      
prepared date = 2011                
magnetization =    0
density in atomic units:
0.10497845E+06
0.29898495E+03
0.10159962E+03
0.44977226E+02
0.16147449E+02
0.74871550E+01
0.47736568E+01
0.31629431E+01
0.19796472E+01
0.12301350E+01
0.77713501E+00
0.51858628E+00
0.37866080E+00
0.28809530E+00
0.22644208E+00
0.17969669E+00
0.14250159E+00
0.11375762E+00
0.89720868E-01
0.70171617E-01
0.54511216E-01
0.42018812E-01
0.32259677E-01
0.24616817E-01
0.18652087E-01
0.14048200E-01
0.10550641E-01
0.79544680E-02
0.59479084E-02
0.44283723E-02
0.33030477E-02
0.24556271E-02
0.18294503E-02
0.13590750E-02
0.10086978E-02
0.75156929E-03
0.56092866E-03
0.41765606E-03
0.30933000E-03
0.22966729E-03
0.17091278E-03
0.12642404E-03
0.93708215E-04
0.69535672E-04
0.51411920E-04
0.38057962E-04
0.28087206E-04
0.20699381E-04
0.15235320E-04
0.11234350E-04
