atomic number =   68
effective nuclear charge =   68
electron count =   65
net charge =    3
basis set = approximate basis set limit (UGBS)      
exchange correlation functional = PW91                
cutoff radius (picometer) =  300
number of shells =   50
prepared by = Thomas A. Manz      
prepared date = 2011                
magnetization =    3
density in atomic units:
0.46563652E+05
0.23708830E+03
0.56658333E+02
0.27257799E+02
0.17890442E+02
0.92663116E+01
0.45103669E+01
0.24591300E+01
0.14994216E+01
0.10122786E+01
0.71274000E+00
0.50428605E+00
0.36302647E+00
0.25702250E+00
0.18020408E+00
0.12452132E+00
0.84579118E-01
0.58099847E-01
0.39283354E-01
0.26408263E-01
0.17737590E-01
0.11866240E-01
0.79550259E-02
0.53318059E-02
0.35592385E-02
0.23707696E-02
0.15809879E-02
0.10636667E-02
0.71014074E-03
0.47166002E-03
0.31467798E-03
0.20893212E-03
0.13924325E-03
0.92461145E-04
0.61249186E-04
0.40853472E-04
0.27305654E-04
0.18145860E-04
0.11959343E-04
0.78938419E-05
0.52239234E-05
0.34099867E-05
0.22305892E-05
0.14672886E-05
0.96009251E-06
0.63286222E-06
0.41392315E-06
0.26968806E-06
0.17576630E-06
0.11495231E-06
