atomic number =   63
effective nuclear charge =   63
electron count =   59
net charge =    4
basis set = approximate basis set limit (UGBS)      
exchange correlation functional = PW91                
cutoff radius (picometer) =  300
number of shells =   50
prepared by = Thomas A. Manz      
prepared date = 2011                
magnetization =    5
density in atomic units:
0.36389441E+05
0.21490741E+03
0.56617302E+02
0.20349077E+02
0.14251445E+02
0.84683132E+01
0.43712320E+01
0.23381646E+01
0.13663102E+01
0.90540242E+00
0.64790821E+00
0.47489664E+00
0.35522488E+00
0.26040894E+00
0.18800686E+00
0.13272162E+00
0.91714747E-01
0.63624404E-01
0.43297701E-01
0.29166799E-01
0.19573554E-01
0.13062083E-01
0.87227598E-02
0.58186920E-02
0.38637731E-02
0.25609271E-02
0.16983342E-02
0.11379489E-02
0.75667346E-03
0.50142541E-03
0.33416125E-03
0.22219519E-03
0.14856516E-03
0.99253397E-04
0.66397741E-04
0.44831464E-04
0.30315938E-04
0.20486174E-04
0.13762725E-04
0.93043800E-05
0.63174903E-05
0.42398442E-05
0.28431780E-05
0.18969557E-05
0.12514748E-05
0.81823168E-06
0.52456176E-06
0.32549758E-06
0.19127162E-06
0.11562804E-06
