atomic number =   82
effective nuclear charge =   82
electron count =   85
net charge =   -3
basis set = approximate basis set limit (UGBS)      
exchange correlation functional = PW91                
cutoff radius (picometer) =  300
number of shells =   50
prepared by = Thomas A. Manz      
prepared date = 2012                
magnetization =    1
density in atomic units:
0.84450828E+05
0.28274573E+03
0.83275169E+02
0.45030052E+02
0.18577600E+02
0.73786039E+01
0.40597973E+01
0.27819226E+01
0.19435158E+01
0.13441428E+01
0.90436602E+00
0.60196078E+00
0.41487515E+00
0.28819004E+00
0.20571989E+00
0.15024334E+00
0.11240294E+00
0.87439202E-01
0.69188066E-01
0.55829134E-01
0.45875076E-01
0.38252700E-01
0.32368995E-01
0.27700800E-01
0.23920571E-01
0.20828051E-01
0.18286321E-01
0.16210688E-01
0.14416400E-01
0.12871115E-01
0.11551099E-01
0.10390548E-01
0.93782088E-02
0.84711602E-02
0.76585170E-02
0.69373026E-02
0.62880972E-02
0.56933118E-02
0.51434739E-02
0.46476643E-02
0.41995044E-02
0.37826318E-02
0.34060243E-02
0.30645505E-02
0.27510803E-02
0.24684859E-02
0.22101244E-02
0.19759855E-02
0.17641233E-02
0.15746325E-02
