atomic number =   14
effective nuclear charge =   14
electron count =    9
net charge =    5
basis set = approximate basis set limit (UGBS)      
exchange correlation functional = PW91PW91            
cutoff radius (picometer) =  300
number of shells =   50
prepared by = Thomas A. Manz      
prepared date = July 2010           
magnetization =    1
density in atomic units:
0.36993945E+03
0.24064260E+02
0.10494727E+02
0.64065413E+01
0.35534866E+01
0.17249718E+01
0.80570197E+00
0.38281149E+00
0.17485507E+00
0.79687715E-01
0.35252400E-01
0.15211063E-01
0.69240457E-02
0.30826279E-02
0.13722375E-02
0.60362514E-03
0.25929933E-03
0.11574812E-03
0.50623679E-04
0.21957874E-04
0.94384959E-05
0.39687502E-05
0.16598576E-05
0.67217695E-06
0.25054433E-06
0.10647668E-06
0.57882993E-07
0.27911229E-07
0.13857391E-07
0.75490600E-08
0.37457135E-08
0.19406841E-08
0.96327946E-09
0.45518095E-09
0.22394379E-09
0.95996454E-10
0.45510019E-10
0.20658943E-10
0.80950038E-11
0.32661846E-11
0.12680447E-11
0.47407103E-12
0.17424811E-12
0.61337999E-13
0.21050321E-13
0.70761111E-14
0.22189371E-14
0.69965228E-15
0.21894057E-15
0.65403404E-16
