atomic number =   56
effective nuclear charge =   56
electron count =   55
net charge =    1
basis set = approximate basis set limit (UGBS)      
exchange correlation functional = PW91PW91            
cutoff radius (picometer) =  300
number of shells =   50
prepared by = Thomas A. Manz      
prepared date = July 2010           
magnetization =    1
density in atomic units:
0.24842268E+05
0.17865305E+03
0.61150368E+02
0.16785776E+02
0.90791397E+01
0.66318784E+01
0.42616954E+01
0.25144830E+01
0.14188921E+01
0.84212977E+00
0.54314744E+00
0.38700113E+00
0.30194905E+00
0.24146718E+00
0.19495420E+00
0.15598688E+00
0.12318484E+00
0.97288750E-01
0.75685725E-01
0.58386605E-01
0.44837777E-01
0.34304336E-01
0.26287366E-01
0.20168640E-01
0.15503867E-01
0.11978359E-01
0.93440861E-02
0.74113864E-02
0.59260959E-02
0.47984985E-02
0.39528441E-02
0.33007907E-02
0.28001105E-02
0.24033936E-02
0.20863658E-02
0.18322829E-02
0.16232410E-02
0.14460145E-02
0.12923845E-02
0.11610951E-02
0.10472481E-02
0.94483321E-03
0.85460133E-03
0.77413680E-03
0.70111267E-03
0.63573546E-03
0.57616259E-03
0.52204437E-03
0.47291134E-03
0.42869506E-03
