atomic number =   63
effective nuclear charge =   63
electron count =   60
net charge =    3
basis set = approximate basis set limit (UGBS)      
exchange correlation functional = PW91                
cutoff radius (picometer) =  300
number of shells =   50
prepared by = Thomas A. Manz      
prepared date = 2011                
magnetization =    6
density in atomic units:
0.36386480E+05
0.21474220E+03
0.56839249E+02
0.20410036E+02
0.14338583E+02
0.85870180E+01
0.44864717E+01
0.24188392E+01
0.14062719E+01
0.92566448E+00
0.65746856E+00
0.48312542E+00
0.36492369E+00
0.27153012E+00
0.20007735E+00
0.14462157E+00
0.10269907E+00
0.73265694E-01
0.51396731E-01
0.35749603E-01
0.24768917E-01
0.17074307E-01
0.11772595E-01
0.80989767E-02
0.55459482E-02
0.37871250E-02
0.25862106E-02
0.17820374E-02
0.12187085E-02
0.83079911E-03
0.56920788E-03
0.38924691E-03
0.26751801E-03
0.18367278E-03
0.12629631E-03
0.87531174E-04
0.60917482E-04
0.42358322E-04
0.29331566E-04
0.20385933E-04
0.14228633E-04
0.98451092E-05
0.67970691E-05
0.46942764E-05
0.32331188E-05
0.22109421E-05
0.15051581E-05
0.10237226E-05
0.68889091E-06
0.45761288E-06
