atomic number =   40
effective nuclear charge =   40
electron count =   39
net charge =    1
basis set = approximate basis set limit (UGBS)      
exchange correlation functional = PW91                
cutoff radius (picometer) =  500
number of shells =  100
prepared by = Thomas A. Manz      
prepared date = 2011                
magnetization =    3
density in atomic units:
0.55759801E+05
0.25272354E+03
0.54037617E+02
0.30875029E+02
0.17485996E+02
0.91327152E+01
0.44116211E+01
0.21770585E+01
0.13116776E+01
0.94824016E+00
0.75712007E+00
0.62927926E+00
0.51569343E+00
0.41284919E+00
0.32939953E+00
0.25927338E+00
0.19993606E+00
0.15409912E+00
0.11835928E+00
0.90445347E-01
0.69675893E-01
0.54473422E-01
0.42654205E-01
0.33661347E-01
0.27027035E-01
0.21908402E-01
0.17966358E-01
0.14936460E-01
0.12522263E-01
0.10603420E-01
0.91084717E-02
0.78122700E-02
0.67832856E-02
0.59196176E-02
0.51734396E-02
0.45420965E-02
0.39924383E-02
0.35166519E-02
0.31102560E-02
0.27555879E-02
0.24371163E-02
0.21645124E-02
0.19214704E-02
0.17076244E-02
0.15211598E-02
0.13501078E-02
0.11990884E-02
0.10700027E-02
0.95203344E-03
0.84749731E-03
0.75438875E-03
0.67114475E-03
0.59788441E-03
0.53326332E-03
0.47546823E-03
0.42386347E-03
0.37739749E-03
0.33621615E-03
0.29971878E-03
0.26715471E-03
0.23829228E-03
0.21241014E-03
0.18947168E-03
0.16897771E-03
0.15060986E-03
0.13453331E-03
0.12016119E-03
0.10717638E-03
0.95590207E-04
0.85264546E-04
0.76112985E-04
0.67969937E-04
0.60661510E-04
0.54180608E-04
0.48350135E-04
0.43143093E-04
0.38500835E-04
0.34371897E-04
0.30686042E-04
0.27420057E-04
0.24492381E-04
0.21857355E-04
0.19502178E-04
0.17390694E-04
0.15520865E-04
0.13858068E-04
0.12380213E-04
0.11057982E-04
0.98813616E-05
0.88242286E-05
0.78904195E-05
0.70548122E-05
0.63033099E-05
0.56308772E-05
0.50274916E-05
0.44905264E-05
0.40150899E-05
0.35875569E-05
0.32047674E-05
0.28660284E-05
