atomic number =   40
effective nuclear charge =   40
electron count =   40
net charge =    0
basis set = approximate basis set limit (UGBS)      
exchange correlation functional = PW91PW91            
cutoff radius (picometer) =  400
number of shells =   75
prepared by = Thomas A. Manz      
prepared date = July 2010           
magnetization =    2
density in atomic units:
0.83730459E+04
0.16153467E+03
0.46699074E+02
0.29096130E+02
0.16082214E+02
0.72939758E+01
0.33092408E+01
0.17007768E+01
0.10787047E+01
0.81847858E+00
0.66385627E+00
0.53939372E+00
0.43035373E+00
0.33797053E+00
0.26145643E+00
0.19976075E+00
0.15130256E+00
0.11460256E+00
0.87564901E-01
0.67695253E-01
0.52942660E-01
0.41977894E-01
0.33684321E-01
0.27563373E-01
0.22893833E-01
0.19299209E-01
0.16503211E-01
0.14248571E-01
0.12402627E-01
0.10848586E-01
0.96005164E-02
0.85138986E-02
0.75469487E-02
0.67039025E-02
0.59786905E-02
0.53333412E-02
0.47522201E-02
0.42366767E-02
0.37837769E-02
0.33716948E-02
0.29983488E-02
0.26702513E-02
0.23760223E-02
0.21118156E-02
0.18765840E-02
0.16665508E-02
0.14789491E-02
0.13118826E-02
0.11611315E-02
0.10278261E-02
0.90938580E-03
0.80507185E-03
0.71158225E-03
0.62886620E-03
0.55646844E-03
0.49167708E-03
0.43388567E-03
0.38307594E-03
0.33842851E-03
0.29881537E-03
0.26368719E-03
0.23295172E-03
0.20574205E-03
0.18160812E-03
0.16024898E-03
0.14140960E-03
0.12493371E-03
0.11026586E-03
0.97286240E-04
0.85945343E-04
0.76025630E-04
0.67117369E-04
0.59212314E-04
0.52277504E-04
0.46208595E-04
