atomic number =    8
effective nuclear charge =    8
electron count =    9
net charge =   -1
basis set = approximate basis set limit (UGBS)      
exchange correlation functional = PW91PW91            
cutoff radius (picometer) =  300
number of shells =   50
prepared by = Thomas A. Manz      
prepared date = July 2010           
magnetization =    1
density in atomic units:
0.10104840E+03
0.17871603E+02
0.42564187E+01
0.16338185E+01
0.10816864E+01
0.85112405E+00
0.67820257E+00
0.53283000E+00
0.40695509E+00
0.30808371E+00
0.22948772E+00
0.16979371E+00
0.12831974E+00
0.96629582E-01
0.73355600E-01
0.55755571E-01
0.42458788E-01
0.32917008E-01
0.25497159E-01
0.19842569E-01
0.15528633E-01
0.12203842E-01
0.96554542E-02
0.76656872E-02
0.61007538E-02
0.48642061E-02
0.38949405E-02
0.31435643E-02
0.25326174E-02
0.20425410E-02
0.16548211E-02
0.13415939E-02
0.10920076E-02
0.88915485E-03
0.72530541E-03
0.59416110E-03
0.48834406E-03
0.40144584E-03
0.32947288E-03
0.27148394E-03
0.22443579E-03
0.18518466E-03
0.15327852E-03
0.12719729E-03
0.10555512E-03
0.87840810E-04
0.73093332E-04
0.60859940E-04
0.50718168E-04
0.42361844E-04
