atomic number =   22
effective nuclear charge =   22
electron count =   20
net charge =    2
basis set = approximate basis set limit (UGBS)      
exchange correlation functional = PW91                
cutoff radius (picometer) =  400
number of shells =   75
prepared by = Thomas A. Manz      
prepared date = 2011                
magnetization =    2
density in atomic units:
0.12776449E+04
0.72653244E+02
0.31989407E+02
0.12084804E+02
0.43633900E+01
0.21274583E+01
0.16144671E+01
0.13578011E+01
0.11151437E+01
0.86690646E+00
0.65602624E+00
0.48180538E+00
0.34497076E+00
0.24558806E+00
0.17351265E+00
0.12216829E+00
0.85461929E-01
0.59840444E-01
0.42387933E-01
0.30102435E-01
0.21736950E-01
0.15692495E-01
0.11470269E-01
0.83403951E-02
0.62095309E-02
0.46464540E-02
0.34689407E-02
0.26882908E-02
0.20199989E-02
0.15798537E-02
0.12184996E-02
0.96264901E-03
0.76297001E-03
0.59812336E-03
0.47859145E-03
0.38624115E-03
0.30893768E-03
0.25283440E-03
0.20698407E-03
0.16947999E-03
0.13869630E-03
0.11445316E-03
0.95548057E-04
0.79308818E-04
0.66514083E-04
0.55325516E-04
0.46983219E-04
0.38939870E-04
0.32946948E-04
0.27523263E-04
0.23351908E-04
0.19509525E-04
0.16441380E-04
0.13824454E-04
0.11697543E-04
0.98442797E-05
0.82385704E-05
0.69106241E-05
0.58144306E-05
0.48738962E-05
0.41027670E-05
0.34307918E-05
0.28883624E-05
0.24072135E-05
0.20132106E-05
0.17018035E-05
0.13933103E-05
0.11643974E-05
0.95515759E-06
0.79298161E-06
0.65191665E-06
0.53209732E-06
0.43458087E-06
0.35399725E-06
0.28997266E-06
