atomic number =   80
effective nuclear charge =   80
electron count =   78
net charge =    2
basis set = approximate basis set limit (UGBS)      
exchange correlation functional = PW91PW91            
cutoff radius (picometer) =  300
number of shells =   50
prepared by = Thomas A. Manz      
prepared date = July 2010           
magnetization =    0
density in atomic units:
0.78163547E+05
0.27734003E+03
0.77425636E+02
0.43836147E+02
0.19370033E+02
0.76408691E+01
0.39212329E+01
0.26083987E+01
0.18484595E+01
0.13205500E+01
0.91946596E+00
0.62813640E+00
0.43733373E+00
0.30141661E+00
0.20912065E+00
0.14506134E+00
0.10069708E+00
0.71519725E-01
0.50673556E-01
0.36059152E-01
0.25820034E-01
0.18568471E-01
0.13464453E-01
0.98140081E-02
0.71766702E-02
0.52689197E-02
0.38925349E-02
0.29102459E-02
0.21724333E-02
0.16244033E-02
0.12230873E-02
0.92235080E-03
0.69988612E-03
0.53189602E-03
0.40557742E-03
0.31164341E-03
0.24081003E-03
0.18643652E-03
0.14422192E-03
0.11219575E-03
0.87671389E-04
0.68273373E-04
0.53330477E-04
0.41736304E-04
0.32590626E-04
0.25446781E-04
0.19833020E-04
0.15443891E-04
0.12018347E-04
0.93439376E-05
