atomic number =   85
effective nuclear charge =   85
electron count =   86
net charge =   -1
basis set = approximate basis set limit (UGBS)      
exchange correlation functional = PW91                
cutoff radius (picometer) =  300
number of shells =   50
prepared by = Thomas A. Manz      
prepared date = 2012                
magnetization =    0
density in atomic units:
0.94403039E+05
0.29072299E+03
0.92503227E+02
0.45652138E+02
0.17275343E+02
0.72551622E+01
0.43973980E+01
0.30330937E+01
0.20244346E+01
0.13216482E+01
0.84656739E+00
0.54860294E+00
0.37908131E+00
0.27116415E+00
0.20328209E+00
0.15765163E+00
0.12543638E+00
0.10277829E+00
0.84825993E-01
0.70481852E-01
0.58845464E-01
0.49222201E-01
0.41288234E-01
0.34643974E-01
0.29042888E-01
0.24325788E-01
0.20391420E-01
0.17166488E-01
0.14402821E-01
0.12070397E-01
0.10137838E-01
0.85061425E-02
0.71503711E-02
0.60039191E-02
0.50411848E-02
0.42441306E-02
0.35780335E-02
0.30135310E-02
0.25317371E-02
0.21315780E-02
0.17982278E-02
0.15125012E-02
0.12746755E-02
0.10755669E-02
0.90651185E-03
0.76528086E-03
0.64543041E-03
0.54431253E-03
0.45905242E-03
0.38773168E-03
