atomic number =   92
effective nuclear charge =   92
electron count =   89
net charge =    3
basis set = approximate basis set limit (UGBS)      
exchange correlation functional = PW91                
cutoff radius (picometer) =  300
number of shells =   50
prepared by = Thomas A. Manz      
prepared date = 2011                
magnetization =    3
density in atomic units:
0.12000034E+06
0.31158276E+03
0.11230663E+03
0.42640541E+02
0.15206318E+02
0.81013050E+01
0.52183919E+01
0.32929156E+01
0.19887064E+01
0.12502515E+01
0.82622063E+00
0.58401412E+00
0.44279331E+00
0.33788735E+00
0.26065868E+00
0.19780768E+00
0.14868179E+00
0.11165107E+00
0.82648709E-01
0.60603291E-01
0.44036571E-01
0.31860717E-01
0.23015559E-01
0.16512198E-01
0.11802220E-01
0.83978828E-02
0.59680021E-02
0.42822869E-02
0.30459266E-02
0.21686347E-02
0.15486552E-02
0.11092676E-02
0.79805113E-03
0.57465903E-03
0.41696554E-03
0.30434947E-03
0.22420789E-03
0.16612471E-03
0.12254318E-03
0.91490103E-04
0.68706075E-04
0.51523999E-04
0.38968697E-04
0.29371357E-04
0.22287819E-04
0.16877584E-04
0.12793624E-04
0.97213479E-05
0.73628339E-05
0.56803519E-05
