atomic number =    6
effective nuclear charge =    6
electron count =    8
net charge =   -2
basis set = approximate basis set limit (UGBS)      
exchange correlation functional = PW91PW91            
cutoff radius (picometer) =  300
number of shells =   50
prepared by = Thomas A. Manz      
prepared date = July 2010           
magnetization =    2
density in atomic units:
0.51828541E+02
0.14228996E+02
0.43614054E+01
0.14324304E+01
0.58898467E+00
0.33225292E+00
0.25576955E+00
0.22151519E+00
0.19374050E+00
0.16802494E+00
0.14282165E+00
0.11960655E+00
0.10051390E+00
0.83688147E-01
0.69703273E-01
0.57877399E-01
0.48019502E-01
0.40281028E-01
0.33751424E-01
0.28374068E-01
0.23946352E-01
0.20270173E-01
0.17237103E-01
0.14683299E-01
0.12522829E-01
0.10680023E-01
0.91272471E-02
0.78320717E-02
0.67017945E-02
0.57312362E-02
0.49089706E-02
0.42003398E-02
0.35990595E-02
0.30801140E-02
0.26365737E-02
0.22611485E-02
0.19425938E-02
0.16679430E-02
0.14291930E-02
0.12278546E-02
0.10567945E-02
0.90793183E-03
0.78204030E-03
0.67462499E-03
0.58195012E-03
0.50301757E-03
0.43478902E-03
0.37602650E-03
0.32545361E-03
0.28222729E-03
