atomic number =   92
effective nuclear charge =   92
electron count =   87
net charge =    5
basis set = approximate basis set limit (UGBS)      
exchange correlation functional = PW91                
cutoff radius (picometer) =  300
number of shells =   50
prepared by = Thomas A. Manz      
prepared date = 2011                
magnetization =    1
density in atomic units:
0.12000632E+06
0.31139926E+03
0.11225358E+03
0.42638210E+02
0.15271510E+02
0.81177855E+01
0.51398034E+01
0.31692979E+01
0.18816843E+01
0.11626383E+01
0.77167243E+00
0.54825044E+00
0.41390070E+00
0.31442845E+00
0.23704335E+00
0.17586248E+00
0.12743162E+00
0.92435345E-01
0.65565251E-01
0.45911115E-01
0.31961687E-01
0.22044934E-01
0.15172535E-01
0.10417656E-01
0.71040546E-02
0.48288475E-02
0.32823258E-02
0.22501154E-02
0.15336889E-02
0.10422559E-02
0.71429810E-03
0.48950809E-03
0.33870339E-03
0.23524428E-03
0.16410067E-03
0.11615604E-03
0.82913029E-04
0.59397364E-04
0.42696542E-04
0.30904870E-04
0.22588445E-04
0.16431521E-04
0.11956548E-04
0.87260660E-05
0.62464187E-05
0.44536314E-05
0.31201662E-05
0.21919818E-05
0.15774659E-05
0.11583870E-05
