atomic number =   22
effective nuclear charge =   22
electron count =   18
net charge =    4
basis set = approximate basis set limit (UGBS)      
exchange correlation functional = PW91                
cutoff radius (picometer) =  500
number of shells =  100
prepared by = Thomas A. Manz      
prepared date = 2011                
magnetization =    0
density in atomic units:
0.80078398E+04
0.96952881E+02
0.39183754E+02
0.13806252E+02
0.46512737E+01
0.23101082E+01
0.16441909E+01
0.13840334E+01
0.11718423E+01
0.93881023E+00
0.71456206E+00
0.53014308E+00
0.37709168E+00
0.25924727E+00
0.17888846E+00
0.12219962E+00
0.81083328E-01
0.53826421E-01
0.35547186E-01
0.23072641E-01
0.15060651E-01
0.99053113E-02
0.64297537E-02
0.41583632E-02
0.27063566E-02
0.17556128E-02
0.11371912E-02
0.74357190E-03
0.48393160E-03
0.31675753E-03
0.20914291E-03
0.13749659E-03
0.91057853E-04
0.60609273E-04
0.40337556E-04
0.26716094E-04
0.17578453E-04
0.11543149E-04
0.76175384E-05
0.50193789E-05
0.32733267E-05
0.21123512E-05
0.13484496E-05
0.86693876E-06
0.55550839E-06
0.34524544E-06
0.21166785E-06
0.12923923E-06
0.74929886E-07
0.44971461E-07
0.39585895E-07
0.27388010E-07
0.18845220E-07
0.15174621E-07
0.10346172E-07
0.69697821E-08
0.46757513E-08
0.31969345E-08
0.21838558E-08
0.15032910E-08
0.10540533E-08
0.74203077E-09
0.53762333E-09
0.38933798E-09
0.30146563E-09
0.23693961E-09
0.18660007E-09
0.15709942E-09
0.13551797E-09
0.11155715E-09
0.87121262E-10
0.71424248E-10
0.57036213E-10
0.43612364E-10
0.34626014E-10
0.26106594E-10
0.19924097E-10
0.15505510E-10
0.11591091E-10
0.88120908E-11
0.65646720E-11
0.50215626E-11
0.35406294E-11
0.27235195E-11
0.19531961E-11
0.13768596E-11
0.10390664E-11
0.73821461E-12
0.52842604E-12
0.37819853E-12
0.27045849E-12
0.19108849E-12
0.13796122E-12
0.94074813E-13
0.66267196E-13
0.45975475E-13
0.32071869E-13
0.21477283E-13
0.15197480E-13
0.10182800E-13
