atomic number =   78
effective nuclear charge =   78
electron count =   77
net charge =    1
basis set = approximate basis set limit (UGBS)      
exchange correlation functional = PW91PW91            
cutoff radius (picometer) =  400
number of shells =   75
prepared by = Thomas A. Manz      
prepared date = July 2010           
magnetization =    1
density in atomic units:
0.72175914E+05
0.39566782E+03
0.95646461E+02
0.53971107E+02
0.31336664E+02
0.14284803E+02
0.67118449E+01
0.37108276E+01
0.24156587E+01
0.17348509E+01
0.12836879E+01
0.94919366E+00
0.69735324E+00
0.51263541E+00
0.37696809E+00
0.27721900E+00
0.20426251E+00
0.15170705E+00
0.11404624E+00
0.86812839E-01
0.66460595E-01
0.51241122E-01
0.39529044E-01
0.30822666E-01
0.24095289E-01
0.18935459E-01
0.14987054E-01
0.11873753E-01
0.94471481E-02
0.75035067E-02
0.60542803E-02
0.48806714E-02
0.39224639E-02
0.31644523E-02
0.25714075E-02
0.20936632E-02
0.17061883E-02
0.13943006E-02
0.11472601E-02
0.94375690E-03
0.77665801E-03
0.64296299E-03
0.53302501E-03
0.44282788E-03
0.36862920E-03
0.30771052E-03
0.25674183E-03
0.21509115E-03
0.17949109E-03
0.15027798E-03
0.12568325E-03
0.10551354E-03
0.88340996E-04
0.74025418E-04
0.62145758E-04
0.52101521E-04
0.43635089E-04
0.36589372E-04
0.30704785E-04
0.25740901E-04
0.21527829E-04
0.18030290E-04
0.15072470E-04
0.12601075E-04
0.10507414E-04
0.87340150E-05
0.72632911E-05
0.60086963E-05
0.49794621E-05
0.41171238E-05
0.34100256E-05
0.28122945E-05
0.23128193E-05
0.19028854E-05
0.15655073E-05
