atomic number =    5
effective nuclear charge =    5
electron count =    3
net charge =    2
basis set = approximate basis set limit (UGBS)      
exchange correlation functional = PW91PW91            
cutoff radius (picometer) =  300
number of shells =   50
prepared by = Thomas A. Manz      
prepared date = July 2010           
magnetization =    1
density in atomic units:
0.33205456E+02
0.11347052E+02
0.41667690E+01
0.15271934E+01
0.57629842E+00
0.21649393E+00
0.98212048E-01
0.59863206E-01
0.44770792E-01
0.37647054E-01
0.32512724E-01
0.27844066E-01
0.23686999E-01
0.19715128E-01
0.16208107E-01
0.13125190E-01
0.10512738E-01
0.84603168E-02
0.67530773E-02
0.53796344E-02
0.42878049E-02
0.34176726E-02
0.27321370E-02
0.21861191E-02
0.17487362E-02
0.13991229E-02
0.11217452E-02
0.90531004E-03
0.72835671E-03
0.58568345E-03
0.47263718E-03
0.38118058E-03
0.30833768E-03
0.24920111E-03
0.20149926E-03
0.16351703E-03
0.13294908E-03
0.10797371E-03
0.87458691E-04
0.71036207E-04
0.57842510E-04
0.46944690E-04
0.38174225E-04
0.31086907E-04
0.25282723E-04
0.20604732E-04
0.16768148E-04
0.13626940E-04
0.11065954E-04
0.89952746E-05
