atomic number =    6
effective nuclear charge =    6
electron count =    9
net charge =   -3
basis set = approximate basis set limit (UGBS)      
exchange correlation functional = PW91PW91            
cutoff radius (picometer) =  300
number of shells =   50
prepared by = Thomas A. Manz      
prepared date = July 2010           
magnetization =    1
density in atomic units:
0.51732658E+02
0.14210402E+02
0.43613682E+01
0.14349805E+01
0.59011680E+00
0.33179504E+00
0.25458717E+00
0.22038528E+00
0.19317819E+00
0.16825809E+00
0.14391725E+00
0.12147780E+00
0.10298117E+00
0.86637899E-01
0.73017165E-01
0.61465744E-01
0.51805951E-01
0.44188652E-01
0.37723105E-01
0.32351580E-01
0.27879465E-01
0.24111887E-01
0.20948255E-01
0.18232629E-01
0.15881812E-01
0.13830186E-01
0.12056568E-01
0.10540763E-01
0.91848932E-02
0.79909144E-02
0.69557028E-02
0.60432218E-02
0.52526556E-02
0.45564394E-02
0.39496906E-02
0.34277008E-02
0.29770944E-02
0.25824837E-02
0.22346203E-02
0.19370141E-02
0.16812616E-02
0.14559530E-02
0.12631331E-02
0.10970825E-02
0.95235812E-03
0.82802522E-03
0.71960909E-03
0.62563288E-03
0.54418889E-03
0.47415949E-03
