atomic number =   77
effective nuclear charge =   77
electron count =   73
net charge =    4
basis set = approximate basis set limit (UGBS)      
exchange correlation functional = PW91PW91            
cutoff radius (picometer) =  500
number of shells =  100
prepared by = Thomas A. Manz      
prepared date = July 2010           
magnetization =    5
density in atomic units:
0.47975200E+06
0.54540277E+03
0.11837092E+03
0.54370796E+02
0.33565125E+02
0.18135704E+02
0.90458364E+01
0.47103467E+01
0.29094965E+01
0.20034153E+01
0.14460092E+01
0.10713995E+01
0.78061640E+00
0.55858713E+00
0.40463829E+00
0.29281688E+00
0.20860292E+00
0.15012403E+00
0.10867743E+00
0.78518882E-01
0.57635684E-01
0.42998165E-01
0.32140926E-01
0.24231246E-01
0.18533090E-01
0.14284928E-01
0.11105968E-01
0.87549528E-02
0.69374363E-02
0.55535156E-02
0.44921958E-02
0.36463311E-02
0.29837682E-02
0.24569510E-02
0.20309705E-02
0.16813837E-02
0.13949482E-02
0.11605448E-02
0.97013073E-03
0.81119267E-03
0.67935383E-03
0.56995300E-03
0.47834052E-03
0.40363253E-03
0.34080641E-03
0.28687116E-03
0.24221174E-03
0.20546533E-03
0.17407403E-03
0.14763774E-03
0.12537725E-03
0.10650172E-03
0.90787165E-04
0.77582554E-04
0.66382367E-04
0.56865847E-04
0.48740854E-04
0.41865740E-04
0.36052134E-04
0.31114334E-04
0.26879199E-04
0.23239238E-04
0.20137495E-04
0.17465665E-04
0.15166665E-04
0.13211094E-04
0.11513303E-04
0.10033674E-04
0.87272438E-05
0.75922740E-05
0.66265488E-05
0.57809575E-05
0.50310259E-05
0.43966215E-05
0.38295498E-05
0.33392346E-05
0.29132475E-05
0.25432896E-05
0.22212953E-05
0.19346578E-05
0.16875138E-05
0.14714213E-05
0.12837282E-05
0.11212642E-05
0.97869054E-06
0.85572037E-06
0.74662034E-06
0.65200175E-06
0.56803913E-06
0.49419066E-06
0.43123435E-06
0.37604084E-06
0.32622145E-06
0.28411841E-06
0.24757705E-06
0.21432882E-06
0.18654792E-06
0.16195683E-06
0.14016969E-06
0.12180918E-06
