atomic number =    5
effective nuclear charge =    5
electron count =    6
net charge =   -1
basis set = approximate basis set limit (UGBS)      
exchange correlation functional = PW91PW91            
cutoff radius (picometer) =  300
number of shells =   50
prepared by = Thomas A. Manz      
prepared date = July 2010           
magnetization =    2
density in atomic units:
0.33393185E+02
0.11421736E+02
0.42127304E+01
0.15694517E+01
0.62183934E+00
0.26591215E+00
0.14983702E+00
0.11189503E+00
0.95709793E-01
0.86403280E-01
0.78207791E-01
0.69984496E-01
0.62293008E-01
0.54644931E-01
0.47587920E-01
0.41048627E-01
0.35163339E-01
0.30232267E-01
0.25841640E-01
0.22059904E-01
0.18828277E-01
0.16065249E-01
0.13733951E-01
0.11737742E-01
0.10030004E-01
0.85617686E-02
0.73203021E-02
0.62825684E-02
0.53766454E-02
0.45996751E-02
0.39419108E-02
0.33755216E-02
0.28949946E-02
0.24802655E-02
0.21258804E-02
0.18253532E-02
0.15702491E-02
0.13498783E-02
0.11577000E-02
0.99522632E-03
0.85663638E-03
0.73580921E-03
0.63339708E-03
0.54581178E-03
0.47016097E-03
0.40562919E-03
0.34976008E-03
0.30164322E-03
0.26025507E-03
0.22489567E-03
