atomic number =   78
effective nuclear charge =   78
electron count =   76
net charge =    2
basis set = approximate basis set limit (UGBS)      
exchange correlation functional = PW91PW91            
cutoff radius (picometer) =  300
number of shells =   50
prepared by = Thomas A. Manz      
prepared date = July 2010           
magnetization =    2
density in atomic units:
0.72175227E+05
0.27179749E+03
0.72042015E+02
0.42010845E+02
0.19985556E+02
0.80661049E+01
0.39211636E+01
0.24577239E+01
0.16958767E+01
0.12036707E+01
0.84422821E+00
0.57969028E+00
0.40657511E+00
0.28328237E+00
0.19851817E+00
0.13886595E+00
0.98278858E-01
0.71062908E-01
0.51889069E-01
0.37760325E-01
0.28070435E-01
0.20944402E-01
0.15706317E-01
0.12033380E-01
0.91541624E-02
0.71205036E-02
0.55092261E-02
0.43474371E-02
0.34305374E-02
0.26943067E-02
0.21400563E-02
0.17019417E-02
0.13643574E-02
0.10953011E-02
0.87741262E-03
0.71262690E-03
0.57755382E-03
0.46803762E-03
0.38012164E-03
0.30909717E-03
0.25386651E-03
0.20754142E-03
0.16981663E-03
0.13968638E-03
0.11450664E-03
0.94265633E-04
0.77541939E-04
0.63947751E-04
0.52680181E-04
0.43565546E-04
