atomic number =   13
effective nuclear charge =   13
electron count =   14
net charge =   -1
basis set = approximate basis set limit (UGBS)      
exchange correlation functional = PW91PW91            
cutoff radius (picometer) =  300
number of shells =   50
prepared by = Thomas A. Manz      
prepared date = July 2010           
magnetization =    2
density in atomic units:
0.30883057E+03
0.23129673E+02
0.93727455E+01
0.61183820E+01
0.37723999E+01
0.20759864E+01
0.11101612E+01
0.60737824E+00
0.32892114E+00
0.18508007E+00
0.10900168E+00
0.69979906E-01
0.51357809E-01
0.41082785E-01
0.35207439E-01
0.31315979E-01
0.28338138E-01
0.25904652E-01
0.23614546E-01
0.21448497E-01
0.19403603E-01
0.17475568E-01
0.15696011E-01
0.14051603E-01
0.12538626E-01
0.11160059E-01
0.99238334E-02
0.88404436E-02
0.78507503E-02
0.69623059E-02
0.61801868E-02
0.54796664E-02
0.48629651E-02
0.43103513E-02
0.38191408E-02
0.33886721E-02
0.30084315E-02
0.26677251E-02
0.23602841E-02
0.20905319E-02
0.18531316E-02
0.16383585E-02
0.14497011E-02
0.12830480E-02
0.11340411E-02
0.10029135E-02
0.88582106E-03
0.78202912E-03
0.69004938E-03
0.60934038E-03
