atomic number =   40
effective nuclear charge =   40
electron count =   36
net charge =    4
basis set = approximate basis set limit (UGBS)      
exchange correlation functional = PW91                
cutoff radius (picometer) =  500
number of shells =  100
prepared by = Thomas A. Manz      
prepared date = 2011                
magnetization =    0
density in atomic units:
0.55758801E+05
0.25261636E+03
0.53919353E+02
0.30857546E+02
0.17481937E+02
0.91271362E+01
0.44096284E+01
0.21778452E+01
0.13109870E+01
0.94143963E+00
0.74327803E+00
0.60796708E+00
0.48808014E+00
0.38079157E+00
0.29461500E+00
0.22380906E+00
0.16484451E+00
0.12038534E+00
0.86840905E-01
0.61366558E-01
0.43305896E-01
0.30594371E-01
0.21297185E-01
0.14732580E-01
0.10220792E-01
0.70559224E-02
0.48562293E-02
0.33630123E-02
0.23148397E-02
0.15979323E-02
0.11089271E-02
0.76529669E-03
0.53034502E-03
0.36839186E-03
0.25565742E-03
0.17667099E-03
0.12178731E-03
0.83963554E-04
0.58148013E-04
0.40094368E-04
0.27611586E-04
0.19030358E-04
0.13083350E-04
0.90657422E-05
0.62715408E-05
0.43000496E-05
0.29636692E-05
0.20575053E-05
0.14229533E-05
0.98913222E-06
0.69019313E-06
0.47973805E-06
0.33515758E-06
0.23490077E-06
0.16397792E-06
0.11430043E-06
0.79020403E-07
0.54692165E-07
0.37789949E-07
0.26044646E-07
0.17802430E-07
0.12183382E-07
0.82842169E-08
0.55998592E-08
0.37844079E-08
0.25361855E-08
0.16930535E-08
0.11256275E-08
0.74343387E-09
0.48523990E-09
0.31986502E-09
0.20954070E-09
0.13603108E-09
0.88300686E-10
0.56787724E-10
0.36423448E-10
0.23254192E-10
0.14760582E-10
0.93840552E-11
0.60019945E-11
0.37869577E-11
0.24017422E-11
0.14962477E-11
0.94561024E-12
0.59861453E-12
0.37272881E-12
0.23374919E-12
0.14769869E-12
0.92038627E-13
0.57517610E-13
0.36049997E-13
0.22460087E-13
0.14058536E-13
0.86608484E-14
0.54131902E-14
0.33504268E-14
0.20529533E-14
0.12472035E-14
0.77594015E-15
0.46932142E-15
