atomic number =   22
effective nuclear charge =   22
electron count =   18
net charge =    4
basis set = approximate basis set limit (UGBS)      
exchange correlation functional = PW91                
cutoff radius (picometer) =  400
number of shells =   75
prepared by = Thomas A. Manz      
prepared date = 2011                
magnetization =    0
density in atomic units:
0.12790499E+04
0.73192459E+02
0.32050739E+02
0.11907695E+02
0.42001252E+01
0.20206656E+01
0.15257832E+01
0.12885650E+01
0.10428066E+01
0.79391807E+00
0.57923621E+00
0.40714681E+00
0.27750388E+00
0.18625470E+00
0.12304466E+00
0.80053896E-01
0.51260538E-01
0.32586619E-01
0.20740947E-01
0.13214309E-01
0.84045613E-02
0.53280555E-02
0.33513312E-02
0.21140149E-02
0.13360699E-02
0.84548618E-03
0.53691171E-03
0.34336752E-03
0.21806698E-03
0.13887620E-03
0.90074260E-04
0.58480993E-04
0.37577487E-04
0.24034733E-04
0.15461053E-04
0.99405079E-05
0.63328021E-05
0.40490713E-05
0.25712611E-05
0.16018417E-05
0.99024498E-06
0.61260505E-06
0.37448501E-06
0.22315844E-06
0.13122434E-06
0.73696960E-07
0.44123283E-07
0.37629423E-07
0.25170273E-07
0.17820856E-07
0.13065685E-07
0.86704057E-08
0.56796510E-08
0.37816825E-08
0.24999522E-08
0.16964798E-08
0.11353006E-08
0.78478191E-09
0.54768484E-09
0.39831524E-09
0.29982150E-09
0.23170132E-09
0.17561586E-09
0.15629627E-09
0.12719417E-09
0.10490393E-09
0.81397951E-10
0.61586826E-10
0.49159569E-10
0.36608491E-10
0.27691165E-10
0.21586182E-10
0.15771969E-10
0.11851510E-10
0.86435624E-11
