atomic number =   80
effective nuclear charge =   80
electron count =   80
net charge =    0
basis set = approximate basis set limit (UGBS)      
exchange correlation functional = PW91PW91            
cutoff radius (picometer) =  300
number of shells =   50
prepared by = Thomas A. Manz      
prepared date = July 2010           
magnetization =    0
density in atomic units:
0.78173242E+05
0.27735843E+03
0.77427925E+02
0.43821983E+02
0.19373810E+02
0.76641955E+01
0.39339132E+01
0.26019461E+01
0.18297838E+01
0.13000220E+01
0.90438133E+00
0.62176841E+00
0.43930772E+00
0.31057438E+00
0.22343470E+00
0.16262668E+00
0.11983901E+00
0.90909228E-01
0.69417834E-01
0.53570602E-01
0.41772716E-01
0.32819919E-01
0.26019420E-01
0.20744035E-01
0.16594881E-01
0.13317684E-01
0.10734449E-01
0.87219644E-02
0.70741344E-02
0.57407082E-02
0.46778945E-02
0.38127312E-02
0.31183958E-02
0.25503885E-02
0.20883183E-02
0.17172812E-02
0.14160925E-02
0.11677342E-02
0.96127653E-03
0.79407135E-03
0.65799948E-03
0.54392387E-03
0.45091283E-03
0.37458050E-03
0.31100449E-03
0.25881646E-03
0.21528821E-03
0.17914220E-03
0.14910720E-03
0.12433688E-03
