atomic number =   80
effective nuclear charge =   80
electron count =   75
net charge =    5
basis set = approximate basis set limit (UGBS)      
exchange correlation functional = PW91                
cutoff radius (picometer) =  300
number of shells =   50
prepared by = Thomas A. Manz      
prepared date = 2011                
magnetization =    3
density in atomic units:
0.78165055E+05
0.27742209E+03
0.77382652E+02
0.43799801E+02
0.19371794E+02
0.76549263E+01
0.39013669E+01
0.25410542E+01
0.17496923E+01
0.12045116E+01
0.80370778E+00
0.51992947E+00
0.34243816E+00
0.22246264E+00
0.14516024E+00
0.94596617E-01
0.62131260E-01
0.41997928E-01
0.28596850E-01
0.19553069E-01
0.13638087E-01
0.95940586E-02
0.68286667E-02
0.49564592E-02
0.36039886E-02
0.26710650E-02
0.19861122E-02
0.15066423E-02
0.11439602E-02
0.86745084E-03
0.66421542E-03
0.50875120E-03
0.39197865E-03
0.30176304E-03
0.23170882E-03
0.17948535E-03
0.13874800E-03
0.10698424E-03
0.82239283E-04
0.63222084E-04
0.48857608E-04
0.37464783E-04
0.28716522E-04
0.22071279E-04
0.16865863E-04
0.12900425E-04
0.97964985E-05
0.74200584E-05
0.55816354E-05
0.42255647E-05
