atomic number =   60
effective nuclear charge =   60
electron count =   61
net charge =   -1
basis set = approximate basis set limit (UGBS)      
exchange correlation functional = PW91                
cutoff radius (picometer) =  300
number of shells =   50
prepared by = Thomas A. Manz      
prepared date = 2011                
magnetization =    5
density in atomic units:
0.31068613E+05
0.19976003E+03
0.58660549E+02
0.17866861E+02
0.11975103E+02
0.79433966E+01
0.44858851E+01
0.24739878E+01
0.14046209E+01
0.88488817E+00
0.61549240E+00
0.45655614E+00
0.35494438E+00
0.27615631E+00
0.21371444E+00
0.16364825E+00
0.12355061E+00
0.94076283E-01
0.70889711E-01
0.53419311E-01
0.40494937E-01
0.30885875E-01
0.23876324E-01
0.18720374E-01
0.14899288E-01
0.12061995E-01
0.99781044E-02
0.84443400E-02
0.72602406E-02
0.63429964E-02
0.56343582E-02
0.50616465E-02
0.45994846E-02
0.42062611E-02
0.38726395E-02
0.35834585E-02
0.33288028E-02
0.30970017E-02
0.28820848E-02
0.26865441E-02
0.25057648E-02
0.23344613E-02
0.21760187E-02
0.20279349E-02
0.18879103E-02
0.17572565E-02
0.16335540E-02
0.15168998E-02
0.14073981E-02
0.13051657E-02
