atomic number =   77
effective nuclear charge =   77
electron count =   72
net charge =    5
basis set = approximate basis set limit (UGBS)      
exchange correlation functional = PW91PW91            
cutoff radius (picometer) =  400
number of shells =   75
prepared by = Thomas A. Manz      
prepared date = July 2010           
magnetization =    4
density in atomic units:
0.69293805E+05
0.38964236E+03
0.94183281E+02
0.51717949E+02
0.31007172E+02
0.14603124E+02
0.69232340E+01
0.37357447E+01
0.23288887E+01
0.15971032E+01
0.11330205E+01
0.80065620E+00
0.55703819E+00
0.38578901E+00
0.26554406E+00
0.18215653E+00
0.12459231E+00
0.85768461E-01
0.59985794E-01
0.42505968E-01
0.30613223E-01
0.22268806E-01
0.16390022E-01
0.12202182E-01
0.92495354E-02
0.70957900E-02
0.55004791E-02
0.43479241E-02
0.34288801E-02
0.27486323E-02
0.22229201E-02
0.18142366E-02
0.14814539E-02
0.12097696E-02
0.99816604E-03
0.82607823E-03
0.68179873E-03
0.56646345E-03
0.47214748E-03
0.39289551E-03
0.32655918E-03
0.27274425E-03
0.22841635E-03
0.19106807E-03
0.16037529E-03
0.13452479E-03
0.11338936E-03
0.95323434E-04
0.80389851E-04
0.67849571E-04
0.57519628E-04
0.48800317E-04
0.41500425E-04
0.35370656E-04
0.30314583E-04
0.25967083E-04
0.22254586E-04
0.19118948E-04
0.16475751E-04
0.14218901E-04
0.12299225E-04
0.10653537E-04
0.92510154E-05
0.80188865E-05
0.69463008E-05
0.60404623E-05
0.52379983E-05
0.45583038E-05
0.39560841E-05
0.34489090E-05
0.30078040E-05
0.26180362E-05
0.22813399E-05
0.19889681E-05
0.17342603E-05
