atomic number =   15
effective nuclear charge =   15
electron count =   11
net charge =    4
basis set = approximate basis set limit (UGBS)      
exchange correlation functional = PW91PW91            
cutoff radius (picometer) =  300
number of shells =   50
prepared by = Thomas A. Manz      
prepared date = July 2010           
magnetization =    1
density in atomic units:
0.44026602E+03
0.27475288E+02
0.13340688E+02
0.76956625E+01
0.39821613E+01
0.18144177E+01
0.81303990E+00
0.38652244E+00
0.19021644E+00
0.10470920E+00
0.64801618E-01
0.44766735E-01
0.33905517E-01
0.26244726E-01
0.20519407E-01
0.15931277E-01
0.12251824E-01
0.94792796E-02
0.72560706E-02
0.55331937E-02
0.42168400E-02
0.32106442E-02
0.24521113E-02
0.18745186E-02
0.14328642E-02
0.10961745E-02
0.84151147E-03
0.65179210E-03
0.50359842E-03
0.38938780E-03
0.30273283E-03
0.23548241E-03
0.18397019E-03
0.14367815E-03
0.11229885E-03
0.88161025E-04
0.69367241E-04
0.54472301E-04
0.42593849E-04
0.33352528E-04
0.26146947E-04
0.20377114E-04
0.15882761E-04
0.12400698E-04
0.96468557E-05
0.75053881E-05
0.58144669E-05
0.44911371E-05
0.34405925E-05
0.26116204E-05
