atomic number =   22
effective nuclear charge =   22
electron count =   20
net charge =    2
basis set = approximate basis set limit (UGBS)      
exchange correlation functional = PW91                
cutoff radius (picometer) =  500
number of shells =  100
prepared by = Thomas A. Manz      
prepared date = 2011                
magnetization =    2
density in atomic units:
0.80025698E+04
0.96288910E+02
0.39053326E+02
0.13950312E+02
0.48322158E+01
0.24524038E+01
0.17284632E+01
0.14564080E+01
0.12446231E+01
0.10096473E+01
0.79274964E+00
0.60561991E+00
0.44888631E+00
0.32524064E+00
0.23661552E+00
0.17267887E+00
0.12325259E+00
0.88649623E-01
0.64210832E-01
0.45909040E-01
0.33476461E-01
0.24473002E-01
0.17914869E-01
0.13268395E-01
0.98676290E-02
0.73996219E-02
0.55756667E-02
0.42763939E-02
0.32795980E-02
0.25500827E-02
0.19634601E-02
0.15653139E-02
0.12287369E-02
0.97582029E-03
0.79027750E-03
0.63196931E-03
0.51094301E-03
0.41671513E-03
0.34137542E-03
0.27763803E-03
0.23194372E-03
0.18981447E-03
0.15636314E-03
0.13248115E-03
0.11020325E-03
0.92346265E-04
0.78548801E-04
0.65767890E-04
0.55796096E-04
0.47277088E-04
0.40103823E-04
0.33951135E-04
0.28976467E-04
0.24692676E-04
0.21040347E-04
0.17881996E-04
0.15265307E-04
0.12960507E-04
0.10982389E-04
0.93941317E-05
0.79195770E-05
0.67255901E-05
0.57171583E-05
0.48468337E-05
0.41255594E-05
0.34949144E-05
0.29584735E-05
0.25092672E-05
0.21225176E-05
0.17839520E-05
0.15173637E-05
0.12675957E-05
0.10628664E-05
0.89165781E-06
0.74226688E-06
0.61510866E-06
0.51171969E-06
0.41914706E-06
0.34761945E-06
0.28961119E-06
0.23816011E-06
0.19765901E-06
0.16285061E-06
0.13431332E-06
0.11070301E-06
0.91365095E-07
0.74567517E-07
0.61729686E-07
0.50547161E-07
0.41297177E-07
0.33867995E-07
0.27891124E-07
0.22779817E-07
0.18542842E-07
0.15220659E-07
0.12369834E-07
0.10061712E-07
0.81679739E-08
0.66097723E-08
0.53542974E-08
