atomic number =   10
effective nuclear charge =   10
electron count =   11
net charge =   -1
basis set = approximate basis set limit (UGBS)      
exchange correlation functional = PW91PW91            
cutoff radius (picometer) =  300
number of shells =   50
prepared by = Thomas A. Manz      
prepared date = July 2010           
magnetization =    1
density in atomic units:
0.16718192E+03
0.19757397E+02
0.51098499E+01
0.29844422E+01
0.22289360E+01
0.15921566E+01
0.11002500E+01
0.75786728E+00
0.51094753E+00
0.34531468E+00
0.23073600E+00
0.15366910E+00
0.10567899E+00
0.72436206E-01
0.50176810E-01
0.34820911E-01
0.24211746E-01
0.17248381E-01
0.12286841E-01
0.88201147E-02
0.63993549E-02
0.46887402E-02
0.34855562E-02
0.26248754E-02
0.20025808E-02
0.15522183E-02
0.12274230E-02
0.99630759E-03
0.82382711E-03
0.69691986E-03
0.60516363E-03
0.53762086E-03
0.48969319E-03
0.45267367E-03
0.42789709E-03
0.41003185E-03
0.39762689E-03
0.38914158E-03
0.38351506E-03
0.38008243E-03
0.37817334E-03
0.37722933E-03
0.37689757E-03
0.37689740E-03
0.37689848E-03
0.37675092E-03
0.37624856E-03
0.37526444E-03
0.37377136E-03
0.37164439E-03
