atomic number =   44
effective nuclear charge =   44
electron count =   43
net charge =    1
basis set = approximate basis set limit (UGBS)      
exchange correlation functional = PW91PW91            
cutoff radius (picometer) =  500
number of shells =  100
prepared by = Thomas A. Manz      
prepared date = July 2010           
magnetization =    3
density in atomic units:
0.76342398E+05
0.27660300E+03
0.67131027E+02
0.36916187E+02
0.16764063E+02
0.74799099E+01
0.35553255E+01
0.21466529E+01
0.16661654E+01
0.13857989E+01
0.11387588E+01
0.91884953E+00
0.71572250E+00
0.54280901E+00
0.41343704E+00
0.31356344E+00
0.23445585E+00
0.17678435E+00
0.13391078E+00
0.10127561E+00
0.77570044E-01
0.60201824E-01
0.46714995E-01
0.36425188E-01
0.28691225E-01
0.22674721E-01
0.17993381E-01
0.14400530E-01
0.11534821E-01
0.92912978E-02
0.75373664E-02
0.61097238E-02
0.49836827E-02
0.40822779E-02
0.33509945E-02
0.27539786E-02
0.22671458E-02
0.18720896E-02
0.15544090E-02
0.12925175E-02
0.10768290E-02
0.90040831E-03
0.75390056E-03
0.63502032E-03
0.53612317E-03
0.45151185E-03
0.38157211E-03
0.32435072E-03
0.27533455E-03
0.23404384E-03
0.19914872E-03
0.16941140E-03
0.14453326E-03
0.12356181E-03
0.10562054E-03
0.90260502E-04
0.77052966E-04
0.65810134E-04
0.56257944E-04
0.48122729E-04
0.41157135E-04
0.35176869E-04
0.30079806E-04
0.25693573E-04
0.21918342E-04
0.18743531E-04
0.16008114E-04
0.13621346E-04
0.11591665E-04
0.98420733E-05
0.83461300E-05
0.70798110E-05
0.59950962E-05
0.50767612E-05
0.42848778E-05
0.36118643E-05
0.30420090E-05
0.25565594E-05
0.21389990E-05
0.17877508E-05
0.14979249E-05
0.12551460E-05
0.10496927E-05
0.87727210E-06
0.73346882E-06
0.61254320E-06
0.51224072E-06
0.42806596E-06
0.35603989E-06
0.29657633E-06
0.24718281E-06
0.20562958E-06
0.17116594E-06
0.14231024E-06
0.11843466E-06
0.98520232E-07
0.81903906E-07
0.68126489E-07
0.56959991E-07
0.47296496E-07
