atomic number =   96
effective nuclear charge =   96
electron count =   96
net charge =    0
basis set = approximate basis set limit (UGBS)      
exchange correlation functional = PW91PW91            
cutoff radius (picometer) =  300
number of shells =   50
prepared by = Thomas A. Manz      
prepared date = July 2010           
magnetization =    6
density in atomic units:
0.13600897E+06
0.32689334E+03
0.12016183E+03
0.39516556E+02
0.15156938E+02
0.90844030E+01
0.57831516E+01
0.35706513E+01
0.21824365E+01
0.14145968E+01
0.96200174E+00
0.68142700E+00
0.50713283E+00
0.37629247E+00
0.28082821E+00
0.20685378E+00
0.15205893E+00
0.11283841E+00
0.83587706E-01
0.61984055E-01
0.46393842E-01
0.35104506E-01
0.26958488E-01
0.21049706E-01
0.16669424E-01
0.13476366E-01
0.11070213E-01
0.93163075E-02
0.79238536E-02
0.68220510E-02
0.59469808E-02
0.52292738E-02
0.46330001E-02
0.41200966E-02
0.36768178E-02
0.32940954E-02
0.29563562E-02
0.26533774E-02
0.23767864E-02
0.21313429E-02
0.19126687E-02
0.17111764E-02
0.15313354E-02
0.13695176E-02
0.12228983E-02
0.10916833E-02
0.97285520E-03
0.86612569E-03
0.77004620E-03
0.68488863E-03
