atomic number =   88
effective nuclear charge =   88
electron count =   85
net charge =    3
basis set = approximate basis set limit (UGBS)      
exchange correlation functional = PW91                
cutoff radius (picometer) =  300
number of shells =   50
prepared by = Thomas A. Manz      
prepared date = 2011                
magnetization =    1
density in atomic units:
0.10498014E+06
0.29898291E+03
0.10159312E+03
0.44977764E+02
0.16141388E+02
0.74767108E+01
0.47683358E+01
0.31635761E+01
0.19825869E+01
0.12316012E+01
0.77506745E+00
0.51261377E+00
0.36961618E+00
0.27683333E+00
0.21394092E+00
0.16680349E+00
0.12987821E+00
0.10184962E+00
0.78833275E-01
0.60461424E-01
0.46021085E-01
0.34727357E-01
0.26081325E-01
0.19453134E-01
0.14394239E-01
0.10579626E-01
0.77507589E-02
0.57023405E-02
0.41591162E-02
0.30207536E-02
0.21998195E-02
0.15979597E-02
0.11647252E-02
0.84758783E-03
0.61711523E-03
0.45189820E-03
0.33201589E-03
0.24373939E-03
0.17826400E-03
0.13090872E-03
0.96422620E-04
0.70623246E-04
0.51850373E-04
0.38104099E-04
0.27870790E-04
0.20416606E-04
0.14899500E-04
0.10866199E-04
0.79309930E-05
0.57940724E-05
