atomic number =    6
effective nuclear charge =    6
electron count =    5
net charge =    1
basis set = approximate basis set limit (UGBS)      
exchange correlation functional = PW91PW91            
cutoff radius (picometer) =  300
number of shells =   50
prepared by = Thomas A. Manz      
prepared date = July 2010           
magnetization =    1
density in atomic units:
0.52432461E+02
0.14309262E+02
0.43055029E+01
0.13522410E+01
0.51633072E+00
0.27247465E+00
0.20582861E+00
0.17761680E+00
0.15364937E+00
0.13034922E+00
0.10718030E+00
0.86025506E-01
0.69036990E-01
0.54534920E-01
0.42912290E-01
0.33481408E-01
0.25969228E-01
0.20351566E-01
0.15856348E-01
0.12354763E-01
0.96484600E-02
0.75441254E-02
0.59236609E-02
0.46599219E-02
0.36673485E-02
0.28890395E-02
0.22827557E-02
0.18177957E-02
0.14439067E-02
0.11472929E-02
0.91585610E-03
0.73139981E-03
0.58654067E-03
0.47044244E-03
0.37790427E-03
0.30508512E-03
0.24704941E-03
0.20013264E-03
0.16187826E-03
0.13146338E-03
0.10718621E-03
0.87211694E-04
0.71202463E-04
0.58282400E-04
0.47676163E-04
0.39104154E-04
0.32071028E-04
0.26311032E-04
0.21574639E-04
0.17726137E-04
