atomic number =   77
effective nuclear charge =   77
electron count =   78
net charge =   -1
basis set = approximate basis set limit (UGBS)      
exchange correlation functional = PW91PW91            
cutoff radius (picometer) =  400
number of shells =   75
prepared by = Thomas A. Manz      
prepared date = July 2010           
magnetization =    2
density in atomic units:
0.69296539E+05
0.38965140E+03
0.94165268E+02
0.51745934E+02
0.31023821E+02
0.14592840E+02
0.69149609E+01
0.37504799E+01
0.23726866E+01
0.16682895E+01
0.12213641E+01
0.89881814E+00
0.65922582E+00
0.48597288E+00
0.36003920E+00
0.26848808E+00
0.20192017E+00
0.15411812E+00
0.11990906E+00
0.94926409E-01
0.76171406E-01
0.61821036E-01
0.50558895E-01
0.41827697E-01
0.34878999E-01
0.29289111E-01
0.24765560E-01
0.21051081E-01
0.17923484E-01
0.15302188E-01
0.13183468E-01
0.11371724E-01
0.97907493E-02
0.84401248E-02
0.73137470E-02
0.63432269E-02
0.54957899E-02
0.47714501E-02
0.41552735E-02
0.36130203E-02
0.31375447E-02
0.27329030E-02
0.23811329E-02
0.20739562E-02
0.18079504E-02
0.15763192E-02
0.13746492E-02
0.11989232E-02
0.10439801E-02
0.90978009E-03
0.79294445E-03
0.69190323E-03
0.60297642E-03
0.52563276E-03
0.45903720E-03
0.40037525E-03
0.34885303E-03
0.30422048E-03
0.26553325E-03
0.23165485E-03
0.20197047E-03
0.17634309E-03
0.15394340E-03
0.13433993E-03
0.11719290E-03
0.10223065E-03
0.89303394E-04
0.77909252E-04
0.67946130E-04
0.59337937E-04
0.51892257E-04
0.45288649E-04
0.39505532E-04
0.34491117E-04
0.30151874E-04
