atomic number =   22
effective nuclear charge =   22
electron count =   21
net charge =    1
basis set = approximate basis set limit (UGBS)      
exchange correlation functional = PW91                
cutoff radius (picometer) =  400
number of shells =   75
prepared by = Thomas A. Manz      
prepared date = 2011                
magnetization =    3
density in atomic units:
0.12777589E+04
0.72615204E+02
0.32021076E+02
0.12082901E+02
0.43783474E+01
0.21429729E+01
0.16077473E+01
0.13618914E+01
0.11175723E+01
0.87397081E+00
0.66003615E+00
0.48524988E+00
0.35017279E+00
0.25133637E+00
0.17974471E+00
0.12826322E+00
0.91587335E-01
0.66006646E-01
0.48350487E-01
0.36083050E-01
0.27306598E-01
0.21012045E-01
0.16351586E-01
0.13003173E-01
0.10475275E-01
0.85646352E-02
0.71107736E-02
0.59485189E-02
0.50313096E-02
0.42690458E-02
0.36816839E-02
0.31816433E-02
0.27506645E-02
0.23896478E-02
0.20881805E-02
0.18282887E-02
0.16024287E-02
0.14070591E-02
0.12408018E-02
0.10935772E-02
0.96352323E-03
0.85174042E-03
0.75326691E-03
0.66663726E-03
0.59051439E-03
0.52367552E-03
0.46436273E-03
0.41244205E-03
0.36567100E-03
0.32473874E-03
0.28838377E-03
0.25661441E-03
0.22810018E-03
0.20287896E-03
0.18074460E-03
0.16089212E-03
0.14314087E-03
0.12746487E-03
0.11363409E-03
0.10129465E-03
0.90251626E-04
0.80535319E-04
0.71867085E-04
0.64110551E-04
0.57171706E-04
0.50983817E-04
0.45549154E-04
0.40641451E-04
0.36249850E-04
0.32355823E-04
0.28918246E-04
0.25797173E-04
0.22992564E-04
0.20506728E-04
0.18295441E-04
