atomic number =   58
effective nuclear charge =   58
electron count =   55
net charge =    3
basis set = approximate basis set limit (UGBS)      
exchange correlation functional = PW91                
cutoff radius (picometer) =  300
number of shells =   50
prepared by = Thomas A. Manz      
prepared date = 2011                
magnetization =    1
density in atomic units:
0.27836406E+05
0.18953615E+03
0.59909946E+02
0.16876499E+02
0.10402914E+02
0.72633905E+01
0.43091555E+01
0.24133468E+01
0.13478885E+01
0.82646120E+00
0.56432861E+00
0.41925499E+00
0.33008862E+00
0.26025736E+00
0.20363839E+00
0.15647468E+00
0.11774476E+00
0.88519238E-01
0.65228403E-01
0.47505494E-01
0.34344256E-01
0.24617407E-01
0.17590892E-01
0.12507817E-01
0.88313753E-02
0.62021920E-02
0.43488047E-02
0.30681933E-02
0.21477514E-02
0.14975476E-02
0.10490866E-02
0.73338859E-03
0.51546184E-03
0.36225689E-03
0.25498503E-03
0.18102754E-03
0.12917099E-03
0.92116468E-04
0.65505817E-04
0.46777339E-04
0.33568602E-04
0.23936644E-04
0.17063545E-04
0.12132700E-04
0.85454194E-05
0.60003890E-05
0.41611070E-05
0.28407094E-05
0.19062903E-05
0.12654972E-05
