atomic number =   14
effective nuclear charge =   14
electron count =   14
net charge =    0
basis set = approximate basis set limit (UGBS)      
exchange correlation functional = PW91PW91            
cutoff radius (picometer) =  300
number of shells =   50
prepared by = Thomas A. Manz      
prepared date = April 2010          
magnetization =    2
density in atomic units:
0.37049686E+03
0.25103872E+02
0.11385715E+02
0.70470223E+01
0.39803352E+01
0.19907854E+01
0.97523934E+00
0.50109667E+00
0.26536837E+00
0.15656975E+00
0.10494261E+00
0.80277696E-01
0.68156704E-01
0.60078077E-01
0.53758096E-01
0.47958218E-01
0.42419482E-01
0.37398078E-01
0.32584541E-01
0.28159140E-01
0.24178918E-01
0.20636743E-01
0.17558694E-01
0.14878506E-01
0.12556273E-01
0.10559295E-01
0.88705933E-02
0.74723181E-02
0.62655346E-02
0.52432036E-02
0.43937578E-02
0.36760252E-02
0.30801527E-02
0.25770052E-02
0.21560290E-02
0.18084297E-02
0.15194600E-02
0.12756992E-02
0.10687175E-02
0.89776993E-03
0.75601583E-03
0.63516630E-03
0.53507753E-03
0.45162949E-03
0.38106326E-03
0.32230021E-03
0.27254669E-03
0.23062949E-03
0.19530099E-03
0.16572908E-03
