atomic number =   15
effective nuclear charge =   15
electron count =   19
net charge =   -4
basis set = approximate basis set limit (UGBS)      
exchange correlation functional = PW91PW91            
cutoff radius (picometer) =  300
number of shells =   50
prepared by = Thomas A. Manz      
prepared date = July 2010           
magnetization =    1
density in atomic units:
0.44069626E+03
0.27738358E+02
0.13519485E+02
0.77757807E+01
0.40068436E+01
0.18232468E+01
0.83000803E+00
0.41864270E+00
0.23743342E+00
0.16329937E+00
0.13071248E+00
0.11391810E+00
0.10294441E+00
0.92834070E-01
0.83154455E-01
0.73584206E-01
0.64456858E-01
0.56436501E-01
0.49056131E-01
0.42536061E-01
0.36886096E-01
0.32010794E-01
0.27873691E-01
0.24337992E-01
0.21304511E-01
0.18708823E-01
0.16504319E-01
0.14660500E-01
0.13040221E-01
0.11629896E-01
0.10417156E-01
0.93491636E-02
0.84176054E-02
0.75849360E-02
0.68421699E-02
0.61863097E-02
0.55996547E-02
0.50658192E-02
0.45755748E-02
0.41366313E-02
0.37422527E-02
0.33776793E-02
0.30506554E-02
0.27555109E-02
0.24862618E-02
0.22447060E-02
0.20244878E-02
0.18255641E-02
0.16460995E-02
0.14857630E-02
