atomic number =   47
effective nuclear charge =   47
electron count =   48
net charge =   -1
basis set = approximate basis set limit (UGBS)      
exchange correlation functional = PW91PW91            
cutoff radius (picometer) =  500
number of shells =  100
prepared by = Thomas A. Manz      
prepared date = July 2010           
magnetization =    0
density in atomic units:
0.94956898E+05
0.29308002E+03
0.79419754E+02
0.39074844E+02
0.15053806E+02
0.64768872E+01
0.36247325E+01
0.27162836E+01
0.22647030E+01
0.18364815E+01
0.14262102E+01
0.10862842E+01
0.80264032E+00
0.58252686E+00
0.43002781E+00
0.31947142E+00
0.23599949E+00
0.17749733E+00
0.13533768E+00
0.10390609E+00
0.81430919E-01
0.65044880E-01
0.52319814E-01
0.42545497E-01
0.35082575E-01
0.29162059E-01
0.24433954E-01
0.20693956E-01
0.17601045E-01
0.15081909E-01
0.13016769E-01
0.11261959E-01
0.97982055E-02
0.85614733E-02
0.75013745E-02
0.65801078E-02
0.57811099E-02
0.50901975E-02
0.44968650E-02
0.39733415E-02
0.35146903E-02
0.31121108E-02
0.27556648E-02
0.24484785E-02
0.21755933E-02
0.19277986E-02
0.17109799E-02
0.15224763E-02
0.13525216E-02
0.12015833E-02
0.10674777E-02
0.94753335E-03
0.84244128E-03
0.74971473E-03
0.66681922E-03
0.59280923E-03
0.52650040E-03
0.46767210E-03
0.41559152E-03
0.36951338E-03
0.32844281E-03
0.29189867E-03
0.25957570E-03
0.23075496E-03
0.20508126E-03
0.18260565E-03
0.16259032E-03
0.14457546E-03
0.12858141E-03
0.11431761E-03
0.10179432E-03
0.90681875E-04
0.80760634E-04
0.72004070E-04
0.64144384E-04
0.57142362E-04
0.50932613E-04
0.45375960E-04
0.40458406E-04
0.36122809E-04
0.32231845E-04
0.28753118E-04
0.25650545E-04
0.22892757E-04
0.20458996E-04
0.18291532E-04
0.16336307E-04
0.14595130E-04
0.13043559E-04
0.11649332E-04
0.10418973E-04
0.93171602E-05
0.83275963E-05
0.74546024E-05
0.66709154E-05
0.59703780E-05
0.53406329E-05
0.47715812E-05
0.42630973E-05
0.38123253E-05
