atomic number =   92
effective nuclear charge =   92
electron count =   85
net charge =    7
basis set = approximate basis set limit (UGBS)      
exchange correlation functional = PW91                
cutoff radius (picometer) =  300
number of shells =   50
prepared by = Thomas A. Manz      
prepared date = 2011                
magnetization =    1
density in atomic units:
0.12001273E+06
0.31111768E+03
0.11222449E+03
0.42629116E+02
0.15278320E+02
0.80885820E+01
0.50757179E+01
0.30964677E+01
0.18084964E+01
0.11014320E+01
0.71560109E+00
0.49749589E+00
0.36771035E+00
0.27144310E+00
0.19898441E+00
0.14255652E+00
0.99653713E-01
0.69599286E-01
0.47507986E-01
0.32035690E-01
0.21473045E-01
0.14317437E-01
0.95629953E-02
0.63851872E-02
0.42548953E-02
0.28346460E-02
0.18944526E-02
0.12814490E-02
0.86222362E-03
0.57970465E-03
0.39269129E-03
0.26609894E-03
0.18162353E-03
0.12412768E-03
0.85139975E-04
0.58932284E-04
0.41000556E-04
0.28552053E-04
0.19784147E-04
0.13742249E-04
0.95860169E-05
0.65821760E-05
0.44595922E-05
0.29847502E-05
0.19310264E-05
0.12557501E-05
0.80537563E-06
0.48591335E-06
0.28219685E-06
0.19399144E-06
