atomic number =   44
effective nuclear charge =   44
electron count =   46
net charge =   -2
basis set = approximate basis set limit (UGBS)      
exchange correlation functional = PW91PW91            
cutoff radius (picometer) =  300
number of shells =   50
prepared by = Thomas A. Manz      
prepared date = July 2010           
magnetization =    2
density in atomic units:
0.11382197E+05
0.12280245E+03
0.48837650E+02
0.22915377E+02
0.86138906E+01
0.33087173E+01
0.19476362E+01
0.15135416E+01
0.12079369E+01
0.93156195E+00
0.68851054E+00
0.49148685E+00
0.35547504E+00
0.25561753E+00
0.18572572E+00
0.13583075E+00
0.10133784E+00
0.77838540E-01
0.60939517E-01
0.48124656E-01
0.39017577E-01
0.32008581E-01
0.26549207E-01
0.22489484E-01
0.19056514E-01
0.16448995E-01
0.14195196E-01
0.12422956E-01
0.10891936E-01
0.95370347E-02
0.84084282E-02
0.74203969E-02
0.65752985E-02
0.58272108E-02
0.51549319E-02
0.45859190E-02
0.40714690E-02
0.36085576E-02
0.31953382E-02
0.28276586E-02
0.25100391E-02
0.22189091E-02
0.19602508E-02
0.17333995E-02
0.15281681E-02
0.13482516E-02
0.11871770E-02
0.10451693E-02
0.91876788E-03
0.80847391E-03
