atomic number =   92
effective nuclear charge =   92
electron count =   88
net charge =    4
basis set = approximate basis set limit (UGBS)      
exchange correlation functional = PW91                
cutoff radius (picometer) =  300
number of shells =   50
prepared by = Thomas A. Manz      
prepared date = 2011                
magnetization =    2
density in atomic units:
0.12000307E+06
0.31140710E+03
0.11231373E+03
0.42640377E+02
0.15236972E+02
0.81089802E+01
0.51853194E+01
0.32400348E+01
0.19389421E+01
0.12132244E+01
0.80165023E+00
0.56706190E+00
0.42997792E+00
0.32656041E+00
0.24984790E+00
0.18693389E+00
0.13829911E+00
0.10189711E+00
0.73913679E-01
0.52945118E-01
0.37574530E-01
0.26523195E-01
0.18674767E-01
0.13067883E-01
0.90949433E-02
0.63089747E-02
0.43643136E-02
0.30529094E-02
0.21159244E-02
0.14668246E-02
0.10211787E-02
0.71359926E-03
0.50160754E-03
0.35324038E-03
0.25078701E-03
0.17959955E-03
0.12983536E-03
0.94415722E-04
0.68404945E-04
0.50087256E-04
0.36970687E-04
0.27165470E-04
0.20087700E-04
0.14787502E-04
0.10876175E-04
0.79726597E-05
0.57957836E-05
0.42268971E-05
0.30408630E-05
0.22421127E-05
