atomic number =   80
effective nuclear charge =   80
electron count =   76
net charge =    4
basis set = approximate basis set limit (UGBS)      
exchange correlation functional = PW91                
cutoff radius (picometer) =  300
number of shells =   50
prepared by = Thomas A. Manz      
prepared date = 2011                
magnetization =    2
density in atomic units:
0.78166062E+05
0.27736743E+03
0.77421730E+02
0.43801865E+02
0.19369390E+02
0.76506042E+01
0.39094722E+01
0.25732119E+01
0.17908517E+01
0.12529377E+01
0.84719914E+00
0.56026876E+00
0.37650043E+00
0.24924584E+00
0.16612653E+00
0.11090154E+00
0.73869266E-01
0.50676659E-01
0.34651246E-01
0.24030844E-01
0.16768230E-01
0.11840934E-01
0.85035255E-02
0.61369971E-02
0.44955406E-02
0.32993250E-02
0.24618788E-02
0.18583779E-02
0.14045385E-02
0.10683545E-02
0.81663491E-03
0.62505720E-03
0.48006343E-03
0.36852341E-03
0.28371435E-03
0.21866284E-03
0.16941705E-03
0.13115535E-03
0.10098212E-03
0.78049183E-04
0.60295071E-04
0.46403184E-04
0.35815134E-04
0.27632470E-04
0.21281478E-04
0.16403937E-04
0.12609066E-04
0.96705362E-05
0.74080849E-05
0.56650642E-05
