atomic number =   91
effective nuclear charge =   91
electron count =   91
net charge =    0
basis set = approximate basis set limit (UGBS)      
exchange correlation functional = PW91PW91            
cutoff radius (picometer) =  300
number of shells =   50
prepared by = Thomas A. Manz      
prepared date = July 2010           
magnetization =    3
density in atomic units:
0.11615376E+06
0.30820349E+03
0.10985812E+03
0.43340622E+02
0.15371127E+02
0.79186568E+01
0.51043754E+01
0.32499094E+01
0.19708141E+01
0.12278885E+01
0.80250913E+00
0.56144029E+00
0.42460933E+00
0.32668853E+00
0.25529283E+00
0.19779542E+00
0.15282555E+00
0.11864351E+00
0.91675401E-01
0.70626549E-01
0.54697946E-01
0.42628109E-01
0.33524849E-01
0.26724327E-01
0.21459905E-01
0.17557409E-01
0.14500500E-01
0.12242311E-01
0.10421123E-01
0.89426041E-02
0.77700000E-02
0.68023992E-02
0.60036429E-02
0.53181970E-02
0.47210837E-02
0.42178845E-02
0.37691465E-02
0.33675204E-02
0.30061165E-02
0.26846221E-02
0.24035459E-02
0.21441190E-02
0.19122587E-02
0.17058689E-02
0.15182327E-02
0.13515583E-02
0.12008369E-02
0.10663553E-02
0.94538450E-03
0.83869381E-03
