atomic number =   85
effective nuclear charge =   85
electron count =   84
net charge =    1
basis set = approximate basis set limit (UGBS)      
exchange correlation functional = PW91                
cutoff radius (picometer) =  300
number of shells =   50
prepared by = Thomas A. Manz      
prepared date = 2012                
magnetization =    2
density in atomic units:
0.94405016E+05
0.29072220E+03
0.92501450E+02
0.45652321E+02
0.17275057E+02
0.72514486E+01
0.43938174E+01
0.30321696E+01
0.20262125E+01
0.13246045E+01
0.84906316E+00
0.54952288E+00
0.37807703E+00
0.26816905E+00
0.19853990E+00
0.15145065E+00
0.11810628E+00
0.94677009E-01
0.76211497E-01
0.61600152E-01
0.49905173E-01
0.40400285E-01
0.32727592E-01
0.26457321E-01
0.21313149E-01
0.17113561E-01
0.13725004E-01
0.11046131E-01
0.88361790E-02
0.70454814E-02
0.56241071E-02
0.44765957E-02
0.35670705E-02
0.28343168E-02
0.22491878E-02
0.17891157E-02
0.14244437E-02
0.11316171E-02
0.89521916E-03
0.70974499E-03
0.56383392E-03
0.44594295E-03
0.35349591E-03
0.28064809E-03
0.22244925E-03
0.17669647E-03
0.14016664E-03
0.11121218E-03
0.88253037E-04
0.70188165E-04
