atomic number =   77
effective nuclear charge =   77
electron count =   76
net charge =    1
basis set = approximate basis set limit (UGBS)      
exchange correlation functional = PW91PW91            
cutoff radius (picometer) =  400
number of shells =   75
prepared by = Thomas A. Manz      
prepared date = July 2010           
magnetization =    4
density in atomic units:
0.69294664E+05
0.38967703E+03
0.94178040E+02
0.51741859E+02
0.31024435E+02
0.14592343E+02
0.69140849E+01
0.37499864E+01
0.23724647E+01
0.16686450E+01
0.12199310E+01
0.89532667E+00
0.65421748E+00
0.47926912E+00
0.35191876E+00
0.25909027E+00
0.19168130E+00
0.14340691E+00
0.10894804E+00
0.84046520E-01
0.65409638E-01
0.51390726E-01
0.40511586E-01
0.32315612E-01
0.25889693E-01
0.20868011E-01
0.16941363E-01
0.13782228E-01
0.11250572E-01
0.91791721E-02
0.75882361E-02
0.62706443E-02
0.51671923E-02
0.42691324E-02
0.35495807E-02
0.29554255E-02
0.24603405E-02
0.20533719E-02
0.17227252E-02
0.14439787E-02
0.12098029E-02
0.10184674E-02
0.85832633E-03
0.72416052E-03
0.61205646E-03
0.51820866E-03
0.43893672E-03
0.37259085E-03
0.31561969E-03
0.26797762E-03
0.22758270E-03
0.19381980E-03
0.16485759E-03
0.14037947E-03
0.11983293E-03
0.10219643E-03
0.87081324E-04
0.74278272E-04
0.63428000E-04
0.54158718E-04
0.46197631E-04
0.39465544E-04
0.33706481E-04
0.28768027E-04
0.24530582E-04
0.20907759E-04
0.17859684E-04
0.15216652E-04
0.12974096E-04
0.11055280E-04
0.94279485E-05
0.80194313E-05
0.68135550E-05
0.57977172E-05
0.49373193E-05
