atomic number =   86
effective nuclear charge =   86
electron count =   86
net charge =    0
basis set = approximate basis set limit (UGBS)      
exchange correlation functional = PW91PW91            
cutoff radius (picometer) =  300
number of shells =   50
prepared by = Thomas A. Manz      
prepared date = July 2010           
magnetization =    0
density in atomic units:
0.97859008E+05
0.29342407E+03
0.95588287E+02
0.45558792E+02
0.16865326E+02
0.72976007E+01
0.45271878E+01
0.30936353E+01
0.20221639E+01
0.12952353E+01
0.82134652E+00
0.53412962E+00
0.37477434E+00
0.27419886E+00
0.21025500E+00
0.16594020E+00
0.13332176E+00
0.10937152E+00
0.89725412E-01
0.73655449E-01
0.60455654E-01
0.49511828E-01
0.40541705E-01
0.33118498E-01
0.26963029E-01
0.21888455E-01
0.17756144E-01
0.14459660E-01
0.11715206E-01
0.94701350E-02
0.76696249E-02
0.61997650E-02
0.50212638E-02
0.40595862E-02
0.32812755E-02
0.26604570E-02
0.21607415E-02
0.17529256E-02
0.14179556E-02
0.11503211E-02
0.93558920E-03
0.75863907E-03
0.61685953E-03
0.50256477E-03
0.40913193E-03
0.33395665E-03
0.27247166E-03
0.22247473E-03
0.18180707E-03
0.14896909E-03
