atomic number =   78
effective nuclear charge =   78
electron count =   75
net charge =    3
basis set = approximate basis set limit (UGBS)      
exchange correlation functional = PW91PW91            
cutoff radius (picometer) =  300
number of shells =   50
prepared by = Thomas A. Manz      
prepared date = July 2010           
magnetization =    3
density in atomic units:
0.72178266E+05
0.27176239E+03
0.72075127E+02
0.41980682E+02
0.19981958E+02
0.80714664E+01
0.39162281E+01
0.24477496E+01
0.16727250E+01
0.11775030E+01
0.81048256E+00
0.54882282E+00
0.37827432E+00
0.25774023E+00
0.17736135E+00
0.12273868E+00
0.85005477E-01
0.60719930E-01
0.43332554E-01
0.31498630E-01
0.23041457E-01
0.17094549E-01
0.12917346E-01
0.97860051E-02
0.75412095E-02
0.57998109E-02
0.45400355E-02
0.35818066E-02
0.28292295E-02
0.22526770E-02
0.18000201E-02
0.14416357E-02
0.11585151E-02
0.93185890E-03
0.75362169E-03
0.60948590E-03
0.49683719E-03
0.40561022E-03
0.32998828E-03
0.27020817E-03
0.22111596E-03
0.18089349E-03
0.14876766E-03
0.12241912E-03
0.10096595E-03
0.83443469E-04
0.69031732E-04
0.57125184E-04
0.47410293E-04
0.39423645E-04
