atomic number =    5
effective nuclear charge =    5
electron count =    2
net charge =    3
basis set = approximate basis set limit (UGBS)      
exchange correlation functional = PW91PW91            
cutoff radius (picometer) =  300
number of shells =   50
prepared by = Thomas A. Manz      
prepared date = July 2010           
magnetization =    0
density in atomic units:
0.32473625E+02
0.11134965E+02
0.41176977E+01
0.15211678E+01
0.57063156E+00
0.19967428E+00
0.71486287E-01
0.27525444E-01
0.10349615E-01
0.39371671E-02
0.14586340E-02
0.52447378E-03
0.20152374E-03
0.75457079E-04
0.28240180E-04
0.10471836E-04
0.37477421E-05
0.13953502E-05
0.50883284E-06
0.17546591E-06
0.56992977E-07
0.28735551E-07
0.13225871E-07
0.60347487E-08
0.24769424E-08
0.12762577E-08
0.82112245E-09
0.69047895E-09
0.64463024E-09
0.58719046E-09
0.52483051E-09
0.44288351E-09
0.35685868E-09
0.27902786E-09
0.21176207E-09
0.15524645E-09
0.10922090E-09
0.76031244E-10
0.53137980E-10
0.34764251E-10
0.23116429E-10
0.14590884E-10
0.91004886E-11
0.58261000E-11
0.35408926E-11
0.21292620E-11
0.12324922E-11
0.70971468E-12
0.39949524E-12
0.22803325E-12
