atomic number =    8
effective nuclear charge =    8
electron count =    8
net charge =    0
basis set = approximate basis set limit (UGBS)      
exchange correlation functional = PW91PW91            
cutoff radius (picometer) =  300
number of shells =   50
prepared by = Thomas A. Manz      
prepared date = July 2010           
magnetization =    2
density in atomic units:
0.10130967E+03
0.17877661E+02
0.42340922E+01
0.16175748E+01
0.10709835E+01
0.84135455E+00
0.66651779E+00
0.51882887E+00
0.39121896E+00
0.29151517E+00
0.21286903E+00
0.15371658E+00
0.11312495E+00
0.82578786E-01
0.60558055E-01
0.44286747E-01
0.32324821E-01
0.24006169E-01
0.17760340E-01
0.13177298E-01
0.98249046E-02
0.73507777E-02
0.55372333E-02
0.41868817E-02
0.31726521E-02
0.24103085E-02
0.18400704E-02
0.14190160E-02
0.10924550E-02
0.84224599E-03
0.65331627E-03
0.50742849E-03
0.39628774E-03
0.30975885E-03
0.24268632E-03
0.19117861E-03
0.15114738E-03
0.11947766E-03
0.94238632E-04
0.74600139E-04
0.59253707E-04
0.46866277E-04
0.37140173E-04
0.29478200E-04
0.23335957E-04
0.18510360E-04
0.14643368E-04
0.11583596E-04
0.91457214E-05
0.72362959E-05
