atomic number =   85
effective nuclear charge =   85
electron count =   87
net charge =   -2
basis set = approximate basis set limit (UGBS)      
exchange correlation functional = PW91                
cutoff radius (picometer) =  300
number of shells =   50
prepared by = Thomas A. Manz      
prepared date = 2012                
magnetization =    1
density in atomic units:
0.94403883E+05
0.29072357E+03
0.92502853E+02
0.45651859E+02
0.17275991E+02
0.72552133E+01
0.43967142E+01
0.30324385E+01
0.20243492E+01
0.13221276E+01
0.84730268E+00
0.54926604E+00
0.37948045E+00
0.27121943E+00
0.20300534E+00
0.15708414E+00
0.12464160E+00
0.10183247E+00
0.83785459E-01
0.69408417E-01
0.57788916E-01
0.48227552E-01
0.40393557E-01
0.33878453E-01
0.28423404E-01
0.23866052E-01
0.20093314E-01
0.17024299E-01
0.14411576E-01
0.12218629E-01
0.10411021E-01
0.88891974E-02
0.76271147E-02
0.65597235E-02
0.56611467E-02
0.49135033E-02
0.42845188E-02
0.37460933E-02
0.32808813E-02
0.28887584E-02
0.25560379E-02
0.22649753E-02
0.20167464E-02
0.18031176E-02
0.16162898E-02
0.14548118E-02
0.13124846E-02
0.11874205E-02
0.10772935E-02
0.98057906E-03
