atomic number =   12
effective nuclear charge =   12
electron count =    9
net charge =    3
basis set = approximate basis set limit (UGBS)      
exchange correlation functional = PW91PW91            
cutoff radius (picometer) =  300
number of shells =   50
prepared by = Thomas A. Manz      
prepared date = July 2010           
magnetization =    1
density in atomic units:
0.25533028E+03
0.21293167E+02
0.72347283E+01
0.47711525E+01
0.31465895E+01
0.18580734E+01
0.10544894E+01
0.60147685E+00
0.33219817E+00
0.18310690E+00
0.98528512E-01
0.52129783E-01
0.28735824E-01
0.15608151E-01
0.85234791E-02
0.46293526E-02
0.24893763E-02
0.13815924E-02
0.75741333E-03
0.41487589E-03
0.22782326E-03
0.12500357E-03
0.68969464E-04
0.38128896E-04
0.20998950E-04
0.11562424E-04
0.63808880E-05
0.35856426E-05
0.19870763E-05
0.10986992E-05
0.61852677E-06
0.34664646E-06
0.19627370E-06
0.11061607E-06
0.62518673E-07
0.35780843E-07
0.20602524E-07
0.11971593E-07
0.68831838E-08
0.40399852E-08
0.23694984E-08
0.13967395E-08
0.82292312E-09
0.48437171E-09
0.28303965E-09
0.16433044E-09
0.94440566E-10
0.52916501E-10
0.29646952E-10
0.16489121E-10
