atomic number =   78
effective nuclear charge =   78
electron count =   72
net charge =    6
basis set = approximate basis set limit (UGBS)      
exchange correlation functional = PW91PW91            
cutoff radius (picometer) =  300
number of shells =   50
prepared by = Thomas A. Manz      
prepared date = July 2010           
magnetization =    4
density in atomic units:
0.72180430E+05
0.27185001E+03
0.72048676E+02
0.41937935E+02
0.19981878E+02
0.80882025E+01
0.39008019E+01
0.23856983E+01
0.15755475E+01
0.10620074E+01
0.69451934E+00
0.44215184E+00
0.28628215E+00
0.18255121E+00
0.11748537E+00
0.76091170E-01
0.49610905E-01
0.33630237E-01
0.22965411E-01
0.16026538E-01
0.11370741E-01
0.82190419E-02
0.60712527E-02
0.45363158E-02
0.34453622E-02
0.26342706E-02
0.20461669E-02
0.16095574E-02
0.12692981E-02
0.10071468E-02
0.80375874E-03
0.64283563E-03
0.51634363E-03
0.41504522E-03
0.33466899E-03
0.27063626E-03
0.21994226E-03
0.17886338E-03
0.14511590E-03
0.11832604E-03
0.96678094E-04
0.78859615E-04
0.64596265E-04
0.53030486E-04
0.43593671E-04
0.35965320E-04
0.29708846E-04
0.24578658E-04
0.20386684E-04
0.16945660E-04
