atomic number =   78
effective nuclear charge =   78
electron count =   71
net charge =    7
basis set = approximate basis set limit (UGBS)      
exchange correlation functional = PW91PW91            
cutoff radius (picometer) =  300
number of shells =   50
prepared by = Thomas A. Manz      
prepared date = July 2010           
magnetization =    3
density in atomic units:
0.72181883E+05
0.27187106E+03
0.72044212E+02
0.41913986E+02
0.19981098E+02
0.80931911E+01
0.38899946E+01
0.23570509E+01
0.15328593E+01
0.10147927E+01
0.64840746E+00
0.40242335E+00
0.25366542E+00
0.15697382E+00
0.98069176E-01
0.61771166E-01
0.39077904E-01
0.25845863E-01
0.17198004E-01
0.11798730E-01
0.82119573E-02
0.58543780E-02
0.42914297E-02
0.31675780E-02
0.23979612E-02
0.18150388E-02
0.14071132E-02
0.11013183E-02
0.86479314E-03
0.68614254E-03
0.54629653E-03
0.43624052E-03
0.34948732E-03
0.28015481E-03
0.22575993E-03
0.18174686E-03
0.14743772E-03
0.11973424E-03
0.96812029E-04
0.78782898E-04
0.63994936E-04
0.51948427E-04
0.42383403E-04
0.34545250E-04
0.28236936E-04
0.23122957E-04
0.18962335E-04
0.15557111E-04
0.12794512E-04
0.10506289E-04
