atomic number =   55
effective nuclear charge =   55
electron count =   55
net charge =    0
basis set = approximate basis set limit (UGBS)      
exchange correlation functional = PW91PW91            
cutoff radius (picometer) =  300
number of shells =   50
prepared by = Thomas A. Manz      
prepared date = July 2010           
magnetization =    1
density in atomic units:
0.23430693E+05
0.17308023E+03
0.61565399E+02
0.17034674E+02
0.85136662E+01
0.62880173E+01
0.42295671E+01
0.25916598E+01
0.14931196E+01
0.88076741E+00
0.55018914E+00
0.37672976E+00
0.28664610E+00
0.22756837E+00
0.18525746E+00
0.15113923E+00
0.12258775E+00
0.99699363E-01
0.80077901E-01
0.63824616E-01
0.50606959E-01
0.39923739E-01
0.31466518E-01
0.24753999E-01
0.19437520E-01
0.15265585E-01
0.12036218E-01
0.95891096E-02
0.76522352E-02
0.61453651E-02
0.49937125E-02
0.40951162E-02
0.34030788E-02
0.28581161E-02
0.24292152E-02
0.20937342E-02
0.18264755E-02
0.16082086E-02
0.14267818E-02
0.12780922E-02
0.11543097E-02
0.10469803E-02
0.95538789E-03
0.87575772E-03
0.80480834E-03
0.74193854E-03
0.68484404E-03
0.63295965E-03
0.58546133E-03
0.54213242E-03
