atomic number =   92
effective nuclear charge =   92
electron count =   90
net charge =    2
basis set = approximate basis set limit (UGBS)      
exchange correlation functional = PW91                
cutoff radius (picometer) =  300
number of shells =   50
prepared by = Thomas A. Manz      
prepared date = 2011                
magnetization =    4
density in atomic units:
0.11999783E+06
0.31183124E+03
0.11227261E+03
0.42643639E+02
0.15180429E+02
0.80969124E+01
0.52426500E+01
0.33249347E+01
0.20276315E+01
0.12713258E+01
0.84443575E+00
0.59721529E+00
0.45108879E+00
0.34741008E+00
0.26836872E+00
0.20697504E+00
0.15728568E+00
0.12055358E+00
0.90943210E-01
0.68098724E-01
0.50927829E-01
0.37797436E-01
0.28022293E-01
0.20782191E-01
0.15327324E-01
0.11284835E-01
0.83268257E-02
0.61807460E-02
0.45799864E-02
0.33828090E-02
0.25221501E-02
0.18769993E-02
0.14101018E-02
0.10631317E-02
0.80235564E-03
0.61403937E-03
0.47273081E-03
0.36480621E-03
0.28370466E-03
0.22194559E-03
0.17547190E-03
0.13921360E-03
0.11100534E-03
0.89682406E-04
0.72242678E-04
0.58845439E-04
0.48117490E-04
0.39499570E-04
0.32720582E-04
0.27139833E-04
