atomic number =    8
effective nuclear charge =    8
electron count =    6
net charge =    2
basis set = approximate basis set limit (UGBS)      
exchange correlation functional = PW91PW91            
cutoff radius (picometer) =  300
number of shells =   50
prepared by = Thomas A. Manz      
prepared date = July 2010           
magnetization =    2
density in atomic units:
0.10197179E+03
0.17713408E+02
0.39504628E+01
0.13545187E+01
0.84743875E+00
0.65532011E+00
0.51007253E+00
0.38647088E+00
0.28123245E+00
0.20145051E+00
0.14107586E+00
0.97730905E-01
0.69389768E-01
0.49010731E-01
0.34919586E-01
0.24894506E-01
0.17758785E-01
0.12932099E-01
0.93911905E-02
0.68445350E-02
0.50156876E-02
0.36884299E-02
0.27311225E-02
0.20299454E-02
0.15117179E-02
0.11285970E-02
0.84678759E-03
0.64216607E-03
0.48613286E-03
0.36863412E-03
0.28140462E-03
0.21519481E-03
0.16561063E-03
0.12762520E-03
0.98586228E-04
0.76629578E-04
0.59784525E-04
0.46666173E-04
0.36360427E-04
0.28424633E-04
0.22259766E-04
0.17347060E-04
0.13545473E-04
0.10592518E-04
0.82518327E-05
0.64460987E-05
0.50264498E-05
0.39179236E-05
0.30523922E-05
0.23785506E-05
