atomic number =   23
effective nuclear charge =   23
electron count =   23
net charge =    0
basis set = approximate basis set limit (UGBS)      
exchange correlation functional = PW91PW91            
cutoff radius (picometer) =  400
number of shells =   75
prepared by = Thomas A. Manz      
prepared date = July 2010           
magnetization =    3
density in atomic units:
0.14605068E+04
0.79780014E+02
0.33056347E+02
0.11633962E+02
0.43250928E+01
0.24338825E+01
0.19350207E+01
0.16131325E+01
0.12674210E+01
0.95129424E+00
0.69068784E+00
0.49189258E+00
0.34706205E+00
0.24529332E+00
0.17425087E+00
0.12448733E+00
0.89981645E-01
0.66415302E-01
0.50288085E-01
0.39252788E-01
0.31188734E-01
0.25394067E-01
0.20938024E-01
0.17707096E-01
0.15097568E-01
0.13033429E-01
0.11390151E-01
0.99545168E-02
0.87846909E-02
0.77245752E-02
0.68751080E-02
0.61032255E-02
0.54036174E-02
0.47925734E-02
0.42593400E-02
0.37821967E-02
0.33544600E-02
0.29731796E-02
0.26407032E-02
0.23398774E-02
0.20690376E-02
0.18325364E-02
0.16214615E-02
0.14337394E-02
0.12674662E-02
0.11203057E-02
0.98932092E-03
0.87393832E-03
0.77008776E-03
0.67903771E-03
0.59845747E-03
0.52803819E-03
0.46511830E-03
0.40973540E-03
0.36144798E-03
0.31842259E-03
0.28019765E-03
0.24672260E-03
0.21739129E-03
0.19147118E-03
0.16854386E-03
0.14854749E-03
0.13091254E-03
0.11531908E-03
0.10155145E-03
0.89448557E-04
0.78913239E-04
0.69540634E-04
0.61261897E-04
0.54038723E-04
0.47719226E-04
0.42057451E-04
0.37051923E-04
0.32684224E-04
0.28867649E-04
