atomic number =   14
effective nuclear charge =   14
electron count =   15
net charge =   -1
basis set = approximate basis set limit (UGBS)      
exchange correlation functional = PW91PW91            
cutoff radius (picometer) =  300
number of shells =   50
prepared by = Thomas A. Manz      
prepared date = July 2010           
magnetization =    3
density in atomic units:
0.37038089E+03
0.25126484E+02
0.11391970E+02
0.70473447E+01
0.39803677E+01
0.19911094E+01
0.97539860E+00
0.50093579E+00
0.26502293E+00
0.15627578E+00
0.10493183E+00
0.80707923E-01
0.69072783E-01
0.61509706E-01
0.55670593E-01
0.50302479E-01
0.45129951E-01
0.40380381E-01
0.35769418E-01
0.31468481E-01
0.27547417E-01
0.24004042E-01
0.20876328E-01
0.18108007E-01
0.15663419E-01
0.13522411E-01
0.11671701E-01
0.10105458E-01
0.87215537E-02
0.75188340E-02
0.64923479E-02
0.56006853E-02
0.48384094E-02
0.41749575E-02
0.36021960E-02
0.31141948E-02
0.26949979E-02
0.23296927E-02
0.20091657E-02
0.17356144E-02
0.15013263E-02
0.12951039E-02
0.11186990E-02
0.96705946E-03
0.83496404E-03
0.72171149E-03
0.62313152E-03
0.53788634E-03
0.46420985E-03
0.40105832E-03
