atomic number =   76
effective nuclear charge =   76
electron count =   74
net charge =    2
basis set = approximate basis set limit (UGBS)      
exchange correlation functional = PW91PW91            
cutoff radius (picometer) =  300
number of shells =   50
prepared by = Thomas A. Manz      
prepared date = July 2010           
magnetization =    6
density in atomic units:
0.66482344E+05
0.26582654E+03
0.67371666E+02
0.39626175E+02
0.20313335E+02
0.85448675E+01
0.40410705E+01
0.24035132E+01
0.15925754E+01
0.11102581E+01
0.76918918E+00
0.52688038E+00
0.36925274E+00
0.25734690E+00
0.18151487E+00
0.12889956E+00
0.92344090E-01
0.68111412E-01
0.50558168E-01
0.37987567E-01
0.28918831E-01
0.22246644E-01
0.17326845E-01
0.13612703E-01
0.10762338E-01
0.85595110E-02
0.68554296E-02
0.55489070E-02
0.44931639E-02
0.36479624E-02
0.29800076E-02
0.24394246E-02
0.20072104E-02
0.16539621E-02
0.13664336E-02
0.11347355E-02
0.94570016E-03
0.78873342E-03
0.65717357E-03
0.54960744E-03
0.46110147E-03
0.38604022E-03
0.32408640E-03
0.27257670E-03
0.22912568E-03
0.19298081E-03
0.16242293E-03
0.13676820E-03
0.11520364E-03
0.97206015E-04
