atomic number =   14
effective nuclear charge =   14
electron count =   17
net charge =   -3
basis set = approximate basis set limit (UGBS)      
exchange correlation functional = PW91PW91            
cutoff radius (picometer) =  300
number of shells =   50
prepared by = Thomas A. Manz      
prepared date = July 2010           
magnetization =    1
density in atomic units:
0.37022800E+03
0.25147589E+02
0.11394506E+02
0.70448756E+01
0.39792089E+01
0.19911658E+01
0.97543156E+00
0.50042009E+00
0.26394269E+00
0.15487605E+00
0.10351741E+00
0.79570606E-01
0.68396360E-01
0.61427996E-01
0.56226410E-01
0.51507153E-01
0.46944570E-01
0.42718451E-01
0.38569640E-01
0.34661572E-01
0.31056810E-01
0.27764780E-01
0.24825368E-01
0.22185912E-01
0.19823521E-01
0.17712582E-01
0.15853206E-01
0.14239912E-01
0.12774740E-01
0.11462231E-01
0.10301718E-01
0.92541194E-02
0.83208429E-02
0.74721090E-02
0.67055556E-02
0.60199732E-02
0.54035420E-02
0.48402525E-02
0.43215239E-02
0.38578319E-02
0.34416171E-02
0.30589919E-02
0.27177802E-02
0.24120670E-02
0.21356191E-02
0.18898107E-02
0.16684659E-02
0.14707729E-02
0.12947568E-02
0.11396371E-02
