atomic number =   40
effective nuclear charge =   40
electron count =   36
net charge =    4
basis set = approximate basis set limit (UGBS)      
exchange correlation functional = PW91                
cutoff radius (picometer) =  400
number of shells =   75
prepared by = Thomas A. Manz      
prepared date = 2011                
magnetization =    0
density in atomic units:
0.83726387E+04
0.16133856E+03
0.46602356E+02
0.29084068E+02
0.16076485E+02
0.72891369E+01
0.33075907E+01
0.16995443E+01
0.10733782E+01
0.80588412E+00
0.64390594E+00
0.51286978E+00
0.39860076E+00
0.30297008E+00
0.22491825E+00
0.16321816E+00
0.11584462E+00
0.81001431E-01
0.56272920E-01
0.38858194E-01
0.26667001E-01
0.18168909E-01
0.12261895E-01
0.82727615E-02
0.55787656E-02
0.37583481E-02
0.25339553E-02
0.17148806E-02
0.11503355E-02
0.77204604E-03
0.52515051E-03
0.35675810E-03
0.23989152E-03
0.16071166E-03
0.10873947E-03
0.73542120E-04
0.49327129E-04
0.33186454E-04
0.22460317E-04
0.15107110E-04
0.10105200E-04
0.68021177E-05
0.45818520E-05
0.30871752E-05
0.20815671E-05
0.14065082E-05
0.95830887E-06
0.65319557E-06
0.44382890E-06
0.30176432E-06
0.20544385E-06
0.13994421E-06
0.94658091E-07
0.64040556E-07
0.43263935E-07
0.29220669E-07
0.19483448E-07
0.12969519E-07
0.86347365E-08
0.56783209E-08
0.37371044E-08
0.24326514E-08
0.15868218E-08
0.10192553E-08
0.65528605E-09
0.41973341E-09
0.26625668E-09
0.16838271E-09
0.10606914E-09
0.66589574E-10
0.41584226E-10
0.25851756E-10
0.15877700E-10
0.98364789E-11
0.60463357E-11
