atomic number =   14
effective nuclear charge =   14
electron count =   19
net charge =   -5
basis set = approximate basis set limit (UGBS)      
exchange correlation functional = PW91PW91            
cutoff radius (picometer) =  300
number of shells =   50
prepared by = Thomas A. Manz      
prepared date = July 2010           
magnetization =    1
density in atomic units:
0.37032083E+03
0.25129288E+02
0.11389597E+02
0.70447550E+01
0.39793394E+01
0.19910147E+01
0.97527415E+00
0.50043696E+00
0.26406854E+00
0.15491618E+00
0.10330436E+00
0.79041414E-01
0.67599759E-01
0.60418013E-01
0.55060364E-01
0.50221592E-01
0.45570210E-01
0.41278459E-01
0.37090719E-01
0.33172909E-01
0.29599328E-01
0.26382251E-01
0.23559058E-01
0.21081025E-01
0.18913738E-01
0.17032128E-01
0.15417935E-01
0.14056631E-01
0.12851621E-01
0.11795577E-01
0.10877882E-01
0.10058702E-01
0.93318317E-02
0.86677810E-02
0.80598714E-02
0.75063799E-02
0.69943932E-02
0.65115439E-02
0.60508689E-02
0.56220386E-02
0.52210321E-02
0.48355591E-02
0.44758092E-02
0.41383607E-02
0.38187469E-02
0.35211390E-02
0.32403870E-02
0.29777808E-02
0.27326408E-02
0.25068475E-02
