atomic number =   11
effective nuclear charge =   11
electron count =    9
net charge =    2
basis set = approximate basis set limit (UGBS)      
exchange correlation functional = PW91                
cutoff radius (picometer) =  300
number of shells =   50
prepared by = Thomas A. Manz      
prepared date = 2011                
magnetization =    1
density in atomic units:
0.20853835E+03
0.20411770E+02
0.59530592E+01
0.38229091E+01
0.27103481E+01
0.17565713E+01
0.10935316E+01
0.68015611E+00
0.41085169E+00
0.24764177E+00
0.14616501E+00
0.85142687E-01
0.51388081E-01
0.30662315E-01
0.18416971E-01
0.11022210E-01
0.65575456E-02
0.40106601E-02
0.24320742E-02
0.14769339E-02
0.90130192E-03
0.55107032E-03
0.33955203E-03
0.20986759E-03
0.12968123E-03
0.80191690E-04
0.49696504E-04
0.31161093E-04
0.19315581E-04
0.11871276E-04
0.73033029E-05
0.44651838E-05
0.27265862E-05
0.16581231E-05
0.10144635E-05
0.62455939E-06
0.38524334E-06
0.23772323E-06
0.14512501E-06
0.90014758E-07
0.55542593E-07
0.34171826E-07
0.21309965E-07
0.13240390E-07
0.83283469E-08
0.52253717E-08
0.32975833E-08
0.20488398E-08
0.12847045E-08
0.79787199E-09
