atomic number =   60
effective nuclear charge =   60
electron count =   56
net charge =    4
basis set = approximate basis set limit (UGBS)      
exchange correlation functional = PW91                
cutoff radius (picometer) =  300
number of shells =   50
prepared by = Thomas A. Manz      
prepared date = 2011                
magnetization =    2
density in atomic units:
0.31071797E+05
0.20014983E+03
0.58372250E+02
0.17692654E+02
0.11869273E+02
0.77620096E+01
0.42856479E+01
0.23191168E+01
0.13127627E+01
0.84018618E+00
0.59699696E+00
0.44728717E+00
0.34592757E+00
0.26360640E+00
0.19766271E+00
0.14479223E+00
0.10356043E+00
0.74072018E-01
0.51848162E-01
0.35841487E-01
0.24604388E-01
0.16744228E-01
0.11364635E-01
0.76757735E-02
0.51424215E-02
0.34237665E-02
0.22718722E-02
0.15161959E-02
0.10000082E-02
0.65439171E-03
0.42891104E-03
0.27931039E-03
0.18221000E-03
0.11825564E-03
0.76505094E-04
0.49796763E-04
0.32465265E-04
0.21087028E-04
0.13591234E-04
0.87755670E-05
0.56923500E-05
0.36500023E-05
0.23332416E-05
0.14858543E-05
0.93525125E-06
0.58507965E-06
0.35737133E-06
0.21221264E-06
0.12078630E-06
0.64129431E-07
