atomic number =   80
effective nuclear charge =   80
electron count =   81
net charge =   -1
basis set = approximate basis set limit (UGBS)      
exchange correlation functional = PW91                
cutoff radius (picometer) =  300
number of shells =   50
prepared by = Thomas A. Manz      
prepared date = 2011                
magnetization =    1
density in atomic units:
0.78172516E+05
0.27735892E+03
0.77427681E+02
0.43822060E+02
0.19373394E+02
0.76641197E+01
0.39343472E+01
0.26023204E+01
0.18296070E+01
0.12991762E+01
0.90298939E+00
0.62011063E+00
0.43765759E+00
0.30912465E+00
0.22231108E+00
0.16189830E+00
0.11952293E+00
0.90969510E-01
0.69829606E-01
0.54291416E-01
0.42753968E-01
0.34014344E-01
0.27383503E-01
0.22235189E-01
0.18180778E-01
0.14962055E-01
0.12412187E-01
0.10407573E-01
0.87475218E-02
0.73872842E-02
0.62834653E-02
0.53666043E-02
0.46121632E-02
0.39770044E-02
0.34452772E-02
0.30002268E-02
0.26264356E-02
0.23054541E-02
0.20250017E-02
0.17873989E-02
0.15818274E-02
0.14003946E-02
0.12444240E-02
0.11077562E-02
0.98748901E-03
0.88203006E-03
0.78833225E-03
0.70486910E-03
0.63103932E-03
0.56568463E-03
