atomic number =   23
effective nuclear charge =   23
electron count =   22
net charge =    1
basis set = approximate basis set limit (UGBS)      
exchange correlation functional = PW91PW91            
cutoff radius (picometer) =  400
number of shells =   75
prepared by = Thomas A. Manz      
prepared date = July 2010           
magnetization =    4
density in atomic units:
0.14599083E+04
0.79710236E+02
0.33001976E+02
0.11667010E+02
0.43309841E+01
0.24272606E+01
0.19498065E+01
0.16160606E+01
0.12754273E+01
0.95707697E+00
0.70098257E+00
0.50260687E+00
0.35492915E+00
0.25106671E+00
0.17780055E+00
0.12640291E+00
0.90204462E-01
0.65125071E-01
0.47947116E-01
0.35860520E-01
0.27335303E-01
0.21085799E-01
0.16489314E-01
0.13036611E-01
0.10480660E-01
0.85107526E-02
0.69658621E-02
0.57907789E-02
0.47979406E-02
0.40254756E-02
0.33981199E-02
0.28882420E-02
0.24552473E-02
0.20879044E-02
0.17908008E-02
0.15404196E-02
0.13234871E-02
0.11436224E-02
0.99168404E-03
0.85945561E-03
0.74466184E-03
0.64803689E-03
0.56526467E-03
0.49299753E-03
0.43105532E-03
0.37695945E-03
0.33064489E-03
0.28966420E-03
0.25407973E-03
0.22297930E-03
0.19610334E-03
0.17254190E-03
0.15187943E-03
0.13377202E-03
0.11811149E-03
0.10416822E-03
0.91789792E-04
0.80986465E-04
0.71548304E-04
0.63185907E-04
0.55786477E-04
0.49310314E-04
0.43601245E-04
0.38546550E-04
0.34067987E-04
0.30120831E-04
0.26624464E-04
0.23545374E-04
0.20799136E-04
0.18393675E-04
0.16264801E-04
0.14344709E-04
0.12631454E-04
0.11132046E-04
0.98245227E-05
