atomic number =   14
effective nuclear charge =   14
electron count =   12
net charge =    2
basis set = approximate basis set limit (UGBS)      
exchange correlation functional = PW91PW91            
cutoff radius (picometer) =  300
number of shells =   50
prepared by = Thomas A. Manz      
prepared date = July 2010           
magnetization =    0
density in atomic units:
0.37076544E+03
0.24992195E+02
0.11333600E+02
0.70287056E+01
0.39738059E+01
0.19880972E+01
0.97300339E+00
0.49769938E+00
0.25984508E+00
0.14853728E+00
0.94328843E-01
0.67399658E-01
0.53649615E-01
0.44449843E-01
0.37550084E-01
0.31655695E-01
0.26444828E-01
0.22058424E-01
0.18138550E-01
0.14769979E-01
0.11941105E-01
0.95883980E-02
0.76777693E-02
0.61253123E-02
0.48683044E-02
0.38602543E-02
0.30629183E-02
0.24450449E-02
0.19447083E-02
0.15460738E-02
0.12340590E-02
0.98478363E-03
0.78863354E-03
0.63119963E-03
0.50555298E-03
0.40650732E-03
0.32756402E-03
0.26365387E-03
0.21151986E-03
0.17010298E-03
0.13705438E-03
0.10994905E-03
0.88340792E-04
0.71021270E-04
0.56951070E-04
0.45697059E-04
0.36570884E-04
0.29216586E-04
0.23299410E-04
0.18583647E-04
