atomic number =   84
effective nuclear charge =   84
electron count =   84
net charge =    0
basis set = approximate basis set limit (UGBS)      
exchange correlation functional = PW91PW91            
cutoff radius (picometer) =  300
number of shells =   50
prepared by = Thomas A. Manz      
prepared date = July 2010           
magnetization =    2
density in atomic units:
0.91016977E+05
0.28805429E+03
0.89403107E+02
0.45599689E+02
0.17706388E+02
0.72525754E+01
0.42702780E+01
0.29575248E+01
0.20127175E+01
0.13419179E+01
0.87287194E+00
0.56801182E+00
0.38897184E+00
0.27247211E+00
0.19852394E+00
0.14914705E+00
0.11504428E+00
0.91834009E-01
0.74099876E-01
0.60424730E-01
0.49668249E-01
0.40998802E-01
0.34000829E-01
0.28235557E-01
0.23439968E-01
0.19445196E-01
0.16144516E-01
0.13461638E-01
0.11179871E-01
0.92700291E-02
0.76998961E-02
0.63857008E-02
0.53041079E-02
0.43984912E-02
0.36464622E-02
0.30308831E-02
0.25229370E-02
0.20979340E-02
0.17400534E-02
0.14470372E-02
0.12061564E-02
0.10027610E-02
0.83581900E-03
0.69801381E-03
0.58260537E-03
0.48745450E-03
0.40773751E-03
0.34132411E-03
0.28594336E-03
0.24011056E-03
