atomic number =   98
effective nuclear charge =   98
electron count =   98
net charge =    0
basis set = approximate basis set limit (UGBS)      
exchange correlation functional = PW91PW91            
cutoff radius (picometer) =  300
number of shells =   50
prepared by = Thomas A. Manz      
prepared date = July 2010           
magnetization =    4
density in atomic units:
0.14435552E+06
0.33577319E+03
0.12267084E+03
0.37976185E+02
0.15546964E+02
0.97061644E+01
0.60717340E+01
0.37060919E+01
0.22799222E+01
0.14809489E+01
0.10118876E+01
0.71231955E+00
0.52076077E+00
0.38108727E+00
0.27815652E+00
0.20248546E+00
0.14595307E+00
0.10722671E+00
0.78353003E-01
0.57606842E-01
0.42939827E-01
0.32346874E-01
0.24814514E-01
0.19417303E-01
0.15448143E-01
0.12530008E-01
0.10374168E-01
0.87678172E-02
0.75052837E-02
0.64929007E-02
0.56883134E-02
0.50137113E-02
0.44521657E-02
0.39659357E-02
0.35397331E-02
0.31709110E-02
0.28442065E-02
0.25489768E-02
0.22807424E-02
0.20415932E-02
0.18281989E-02
0.16322318E-02
0.14571642E-02
0.13005986E-02
0.11583125E-02
0.10315885E-02
0.91703527E-03
0.81423862E-03
0.72226656E-03
0.64070022E-03
