atomic number =   77
effective nuclear charge =   77
electron count =   72
net charge =    5
basis set = approximate basis set limit (UGBS)      
exchange correlation functional = PW91PW91            
cutoff radius (picometer) =  500
number of shells =  100
prepared by = Thomas A. Manz      
prepared date = July 2010           
magnetization =    4
density in atomic units:
0.47976000E+06
0.54543927E+03
0.11838516E+03
0.54355640E+02
0.33557083E+02
0.18137012E+02
0.90528154E+01
0.47120833E+01
0.29006519E+01
0.19814702E+01
0.14162025E+01
0.10357217E+01
0.74328363E+00
0.52281362E+00
0.37152374E+00
0.26399651E+00
0.18409881E+00
0.12973055E+00
0.92131376E-01
0.65167360E-01
0.47021642E-01
0.34445260E-01
0.25343612E-01
0.18876500E-01
0.14264873E-01
0.10894348E-01
0.84058149E-02
0.65969774E-02
0.52086459E-02
0.41650208E-02
0.33554859E-02
0.27336045E-02
0.22358557E-02
0.18429210E-02
0.15297332E-02
0.12683884E-02
0.10554012E-02
0.88124356E-03
0.73891785E-03
0.61863119E-03
0.52062050E-03
0.43705321E-03
0.36724622E-03
0.31122216E-03
0.26297619E-03
0.22184284E-03
0.18793465E-03
0.15940849E-03
0.13530295E-03
0.11492899E-03
0.97779761E-04
0.83165964E-04
0.71082315E-04
0.60897797E-04
0.52243948E-04
0.44857741E-04
0.38579747E-04
0.33239623E-04
0.28688759E-04
0.24868339E-04
0.21526850E-04
0.18678635E-04
0.16245849E-04
0.14150170E-04
0.12353044E-04
0.10802451E-04
0.94566503E-05
0.82799661E-05
0.72360181E-05
0.63203688E-05
0.55483310E-05
0.48691923E-05
0.42636875E-05
0.37518189E-05
0.32905341E-05
0.28896882E-05
0.25438867E-05
0.22306328E-05
0.19649476E-05
0.17302999E-05
0.15146792E-05
0.13227819E-05
0.11555389E-05
0.10127209E-05
0.88690638E-06
0.77840502E-06
0.68106033E-06
0.59665149E-06
0.52180650E-06
0.45528978E-06
0.39839270E-06
0.34869913E-06
0.30341170E-06
0.26521730E-06
0.23157044E-06
0.20148191E-06
0.17555446E-06
0.15287243E-06
0.13283326E-06
0.11549200E-06
