atomic number =    6
effective nuclear charge =    6
electron count =    3
net charge =    3
basis set = approximate basis set limit (UGBS)      
exchange correlation functional = PW91PW91            
cutoff radius (picometer) =  300
number of shells =   50
prepared by = Thomas A. Manz      
prepared date = July 2010           
magnetization =    1
density in atomic units:
0.51699116E+02
0.14109071E+02
0.42159004E+01
0.12690717E+01
0.42007595E+00
0.16693608E+00
0.10012796E+00
0.78251764E-01
0.64518988E-01
0.52848697E-01
0.41859988E-01
0.32221839E-01
0.24800850E-01
0.18744724E-01
0.14115755E-01
0.10543331E-01
0.78349588E-02
0.59072627E-02
0.44348226E-02
0.33382121E-02
0.25250621E-02
0.19162677E-02
0.14631534E-02
0.11203707E-02
0.85849367E-03
0.65824023E-03
0.50597271E-03
0.39180389E-03
0.30202247E-03
0.23244783E-03
0.17949348E-03
0.13833573E-03
0.10687298E-03
0.82399842E-04
0.63497537E-04
0.49113529E-04
0.38016984E-04
0.29381659E-04
0.22633856E-04
0.17495873E-04
0.13569549E-04
0.10467585E-04
0.80754116E-05
0.62428853E-05
0.48013235E-05
0.36959509E-05
0.28220791E-05
0.21711603E-05
0.16836455E-05
0.13101738E-05
