atomic number =   77
effective nuclear charge =   77
electron count =   76
net charge =    1
basis set = approximate basis set limit (UGBS)      
exchange correlation functional = PW91PW91            
cutoff radius (picometer) =  500
number of shells =  100
prepared by = Thomas A. Manz      
prepared date = July 2010           
magnetization =    4
density in atomic units:
0.47976900E+06
0.54538849E+03
0.11833855E+03
0.54393017E+02
0.33572582E+02
0.18131720E+02
0.90397911E+01
0.47143588E+01
0.29274342E+01
0.20377052E+01
0.14910874E+01
0.11259875E+01
0.84045881E+00
0.61984468E+00
0.46536815E+00
0.35007551E+00
0.26157910E+00
0.19817524E+00
0.15135577E+00
0.11613680E+00
0.90353176E-01
0.71544312E-01
0.56731310E-01
0.45215283E-01
0.36475752E-01
0.29526696E-01
0.24012528E-01
0.19671569E-01
0.16138168E-01
0.13299514E-01
0.11051857E-01
0.91442959E-02
0.76245526E-02
0.63754674E-02
0.53318283E-02
0.44671190E-02
0.37438562E-02
0.31434135E-02
0.26511464E-02
0.22384608E-02
0.18890258E-02
0.16005520E-02
0.13562883E-02
0.11535105E-02
0.98349247E-03
0.83551777E-03
0.71139087E-03
0.60936779E-03
0.52073051E-03
0.44552446E-03
0.38145867E-03
0.32652705E-03
0.28019585E-03
0.24092862E-03
0.20715875E-03
0.17814843E-03
0.15305569E-03
0.13163984E-03
0.11335123E-03
0.97627708E-04
0.84144158E-04
0.72475654E-04
0.62487234E-04
0.53869378E-04
0.46403340E-04
0.40064067E-04
0.34587818E-04
0.29796511E-04
0.25651136E-04
0.22080741E-04
0.19029640E-04
0.16399008E-04
0.14125943E-04
0.12185419E-04
0.10472221E-04
0.89988844E-05
0.77318446E-05
0.66472089E-05
0.57158200E-05
0.49177929E-05
0.42233164E-05
0.36162864E-05
0.30970461E-05
0.26526152E-05
0.22755962E-05
0.19514446E-05
0.16744214E-05
0.14365783E-05
0.12377163E-05
0.10644100E-05
0.91643420E-06
0.78830556E-06
0.67737341E-06
0.58247434E-06
0.50042132E-06
0.42939686E-06
0.36866371E-06
0.31610398E-06
0.27066295E-06
0.23180183E-06
