atomic number =    6
effective nuclear charge =    6
electron count =   11
net charge =   -5
basis set = approximate basis set limit (UGBS)      
exchange correlation functional = PW91PW91            
cutoff radius (picometer) =  300
number of shells =   50
prepared by = Thomas A. Manz      
prepared date = July 2010           
magnetization =    1
density in atomic units:
0.51915802E+02
0.14238258E+02
0.43497949E+01
0.14168184E+01
0.57445592E+00
0.32007372E+00
0.24570745E+00
0.21308488E+00
0.18672349E+00
0.16218606E+00
0.13805929E+00
0.11579529E+00
0.97505033E-01
0.81436247E-01
0.68145387E-01
0.56982163E-01
0.47770668E-01
0.40617876E-01
0.34667693E-01
0.29832898E-01
0.25920948E-01
0.22722542E-01
0.20120107E-01
0.17961135E-01
0.16143197E-01
0.14600911E-01
0.13288612E-01
0.12177821E-01
0.11181593E-01
0.10289707E-01
0.94950786E-02
0.87663811E-02
0.81022652E-02
0.74816383E-02
0.69022728E-02
0.63668736E-02
0.58677373E-02
0.53949524E-02
0.49442127E-02
0.45264363E-02
0.41393875E-02
0.37716564E-02
0.34331793E-02
0.31211416E-02
0.28306020E-02
0.25653236E-02
0.23200198E-02
0.20955324E-02
0.18905879E-02
0.17056317E-02
