atomic number =   60
effective nuclear charge =   60
electron count =   60
net charge =    0
basis set = approximate basis set limit (UGBS)      
exchange correlation functional = PW91PW91            
cutoff radius (picometer) =  300
number of shells =   50
prepared by = Thomas A. Manz      
prepared date = July 2010           
magnetization =    4
density in atomic units:
0.31069016E+05
0.19972023E+03
0.58691032E+02
0.17847717E+02
0.11985621E+02
0.79369278E+01
0.44891114E+01
0.24805560E+01
0.14062358E+01
0.88950896E+00
0.61648446E+00
0.45616338E+00
0.35433853E+00
0.27435380E+00
0.21205236E+00
0.16154593E+00
0.12167270E+00
0.92236795E-01
0.69312975E-01
0.52096013E-01
0.39359428E-01
0.29979961E-01
0.23161972E-01
0.18146876E-01
0.14444126E-01
0.11703888E-01
0.96770097E-02
0.81885159E-02
0.70232912E-02
0.61108000E-02
0.53912015E-02
0.48006480E-02
0.43111648E-02
0.38889903E-02
0.35209318E-02
0.31985764E-02
0.29110366E-02
0.26483419E-02
0.24047620E-02
0.21845300E-02
0.19842114E-02
0.17968913E-02
0.16267439E-02
0.14713343E-02
0.13280114E-02
0.11979457E-02
0.10784144E-02
0.96944912E-03
0.87026949E-03
0.78102772E-03
