atomic number =   10
effective nuclear charge =   10
electron count =    9
net charge =    1
basis set = approximate basis set limit (UGBS)      
exchange correlation functional = PW91PW91            
cutoff radius (picometer) =  300
number of shells =   50
prepared by = Thomas A. Manz      
prepared date = July 2010           
magnetization =    1
density in atomic units:
0.16745102E+03
0.19524151E+02
0.48504782E+01
0.27603772E+01
0.20419915E+01
0.14406190E+01
0.97944593E+00
0.66343659E+00
0.44015098E+00
0.29360196E+00
0.19423635E+00
0.12844655E+00
0.87931737E-01
0.60060948E-01
0.41478485E-01
0.28694933E-01
0.19879716E-01
0.14102516E-01
0.99906223E-02
0.71194167E-02
0.51144459E-02
0.36961194E-02
0.26962301E-02
0.19783496E-02
0.14564634E-02
0.10760162E-02
0.79916127E-03
0.59999590E-03
0.44927851E-03
0.33651362E-03
0.25339480E-03
0.19072008E-03
0.14416779E-03
0.10889723E-03
0.82254468E-04
0.62408442E-04
0.47461643E-04
0.36040710E-04
0.27228014E-04
0.20612748E-04
0.15640966E-04
0.11782602E-04
0.88641782E-05
0.66750308E-05
0.49960886E-05
0.37547984E-05
0.28542308E-05
0.21745573E-05
0.16570610E-05
0.12653509E-05
