atomic number =    8
effective nuclear charge =    8
electron count =   10
net charge =   -2
basis set = approximate basis set limit (UGBS)      
exchange correlation functional = PW91PW91            
cutoff radius (picometer) =  300
number of shells =   50
prepared by = Thomas A. Manz      
prepared date = July 2010           
magnetization =    0
density in atomic units:
0.10084351E+03
0.17864124E+02
0.42708373E+01
0.16438775E+01
0.10877439E+01
0.85679471E+00
0.68577915E+00
0.54261196E+00
0.41852608E+00
0.32068262E+00
0.24252903E+00
0.18279234E+00
0.14096291E+00
0.10867884E+00
0.84651895E-01
0.66165112E-01
0.51914148E-01
0.41435681E-01
0.33074260E-01
0.26510978E-01
0.21355003E-01
0.17256469E-01
0.14015390E-01
0.11410902E-01
0.92993062E-02
0.75860969E-02
0.62045581E-02
0.51074014E-02
0.41937074E-02
0.34431263E-02
0.28368135E-02
0.23368534E-02
0.19310822E-02
0.15953423E-02
0.13193750E-02
0.10955037E-02
0.91203937E-03
0.75935351E-03
0.63133560E-03
0.52684575E-03
0.44113927E-03
0.36878450E-03
0.30931551E-03
0.26008266E-03
0.21875757E-03
0.18458304E-03
0.15582771E-03
0.13173791E-03
0.11151354E-03
0.94642783E-04
