atomic number =    6
effective nuclear charge =    6
electron count =    1
net charge =    5
basis set = approximate basis set limit (UGBS)      
exchange correlation functional = PW91PW91            
cutoff radius (picometer) =  300
number of shells =   50
prepared by = Thomas A. Manz      
prepared date = July 2010           
magnetization =    1
density in atomic units:
0.27915903E+02
0.73710542E+01
0.20873306E+01
0.57784545E+00
0.16108306E+00
0.40591672E-01
0.10345586E-01
0.28849829E-02
0.76979666E-03
0.20626237E-03
0.53364103E-04
0.13242732E-04
0.36484637E-05
0.10126827E-05
0.28205861E-06
0.78781490E-07
0.20556168E-07
0.56729501E-08
0.14380992E-08
0.37525508E-09
0.10480840E-09
0.28465836E-10
0.95505461E-11
0.29916558E-11
0.92242295E-12
0.28012640E-12
0.83106617E-13
0.24892821E-13
0.68970564E-14
0.19218040E-14
0.47837922E-15
0.12198066E-15
0.28491786E-16
0.62334255E-17
0.12901586E-17
0.25826083E-18
0.50830042E-19
0.94987476E-20
0.17100903E-20
0.27957531E-21
0.45535257E-22
0.64892566E-23
0.92736043E-24
0.12990547E-24
0.21860380E-25
0.28808748E-26
0.32380155E-27
0.38062978E-28
0.39271758E-29
0.40486757E-30
