atomic number =   14
effective nuclear charge =   14
electron count =   13
net charge =    1
basis set = approximate basis set limit (UGBS)      
exchange correlation functional = PW91PW91            
cutoff radius (picometer) =  300
number of shells =   50
prepared by = Thomas A. Manz      
prepared date = July 2010           
magnetization =    1
density in atomic units:
0.37062085E+03
0.25052090E+02
0.11361247E+02
0.70381875E+01
0.39770689E+01
0.19894360E+01
0.97421974E+00
0.49960366E+00
0.26291317E+00
0.15293926E+00
0.10007232E+00
0.74290641E-01
0.61334204E-01
0.52643698E-01
0.45962922E-01
0.40032528E-01
0.34569129E-01
0.29786063E-01
0.25346724E-01
0.21392060E-01
0.17942434E-01
0.14964819E-01
0.12454262E-01
0.10330862E-01
0.85442998E-02
0.70501072E-02
0.58210841E-02
0.48287068E-02
0.39927531E-02
0.33006216E-02
0.27370346E-02
0.22696035E-02
0.18877536E-02
0.15699876E-02
0.13074762E-02
0.10929161E-02
0.91613841E-03
0.76810579E-03
0.64303610E-03
0.54024899E-03
0.45524215E-03
0.38290973E-03
0.32303808E-03
0.27312944E-03
0.23094253E-03
0.19578139E-03
0.16595090E-03
0.14080350E-03
0.11958226E-03
0.10180366E-03
