atomic number =   82
effective nuclear charge =   82
electron count =   84
net charge =   -2
basis set = approximate basis set limit (UGBS)      
exchange correlation functional = PW91                
cutoff radius (picometer) =  300
number of shells =   50
prepared by = Thomas A. Manz      
prepared date = 2012                
magnetization =    2
density in atomic units:
0.84451414E+05
0.28274573E+03
0.83275360E+02
0.45029858E+02
0.18577963E+02
0.73788090E+01
0.40595474E+01
0.27816229E+01
0.19435185E+01
0.13445586E+01
0.90510494E+00
0.60283768E+00
0.41570076E+00
0.28882623E+00
0.20609064E+00
0.15031461E+00
0.11217840E+00
0.86959600E-01
0.68482116E-01
0.54932650E-01
0.44820707E-01
0.37068166E-01
0.31078896E-01
0.26323499E-01
0.22472657E-01
0.19323561E-01
0.16740013E-01
0.14636104E-01
0.12825654E-01
0.11277140E-01
0.99658798E-02
0.88258404E-02
0.78443494E-02
0.69784252E-02
0.62158173E-02
0.55509522E-02
0.49639419E-02
0.44364529E-02
0.39582625E-02
0.35353936E-02
0.31601053E-02
0.28173244E-02
0.25129567E-02
0.22414646E-02
0.19959565E-02
0.17777743E-02
0.15808704E-02
0.14045218E-02
0.12466693E-02
0.11068729E-02
