atomic number =   44
effective nuclear charge =   44
electron count =   43
net charge =    1
basis set = approximate basis set limit (UGBS)      
exchange correlation functional = PW91PW91            
cutoff radius (picometer) =  400
number of shells =   75
prepared by = Thomas A. Manz      
prepared date = July 2010           
magnetization =    3
density in atomic units:
0.11380845E+05
0.16935086E+03
0.59182026E+02
0.33885918E+02
0.15112667E+02
0.58575840E+01
0.28148057E+01
0.18845357E+01
0.15022908E+01
0.12276781E+01
0.97952646E+00
0.75709474E+00
0.57067895E+00
0.42561746E+00
0.31511027E+00
0.23231298E+00
0.17095067E+00
0.12647377E+00
0.94660379E-01
0.71600750E-01
0.54610051E-01
0.41912347E-01
0.32272901E-01
0.25063897E-01
0.19588048E-01
0.15392042E-01
0.12168144E-01
0.96763046E-02
0.76933582E-02
0.61384211E-02
0.49563022E-02
0.40102834E-02
0.32375837E-02
0.26196628E-02
0.21379837E-02
0.17496375E-02
0.14319184E-02
0.11776754E-02
0.97462343E-03
0.80654852E-03
0.66777033E-03
0.55629160E-03
0.46459035E-03
0.38859129E-03
0.32594375E-03
0.27390989E-03
0.23053313E-03
0.19430186E-03
0.16356997E-03
0.13797707E-03
0.11648174E-03
0.98532415E-04
0.83255320E-04
0.70374386E-04
0.59647758E-04
0.50477556E-04
0.42666557E-04
0.36100962E-04
0.30558287E-04
0.25841848E-04
0.21817983E-04
0.18443954E-04
0.15561940E-04
0.13120577E-04
0.11041396E-04
0.92679929E-05
0.77795094E-05
0.65145900E-05
0.54498682E-05
0.45525062E-05
0.38056194E-05
0.31715442E-05
0.26308139E-05
0.21752535E-05
0.17960795E-05
