atomic number =   91
effective nuclear charge =   91
electron count =   92
net charge =   -1
basis set = approximate basis set limit (UGBS)      
exchange correlation functional = PW91                
cutoff radius (picometer) =  300
number of shells =   50
prepared by = Thomas A. Manz      
prepared date = 2012                
magnetization =    4
density in atomic units:
0.11615348E+06
0.30814786E+03
0.10986443E+03
0.43338818E+02
0.15375583E+02
0.79236283E+01
0.51028671E+01
0.32425952E+01
0.19582956E+01
0.12168143E+01
0.79257858E+00
0.55438662E+00
0.42066389E+00
0.32470295E+00
0.25540832E+00
0.19901541E+00
0.15498009E+00
0.12117587E+00
0.94402976E-01
0.73444240E-01
0.57363614E-01
0.45157023E-01
0.35911266E-01
0.28873809E-01
0.23436550E-01
0.19323215E-01
0.16104385E-01
0.13699813E-01
0.11744636E-01
0.10169486E-01
0.89070918E-02
0.78694839E-02
0.70095360E-02
0.62730438E-02
0.56381561E-02
0.50970847E-02
0.46186415E-02
0.41903523E-02
0.38005942E-02
0.34532503E-02
0.31449613E-02
0.28578576E-02
0.25988636E-02
0.23637966E-02
0.21476375E-02
0.19516819E-02
0.17712062E-02
0.16068628E-02
0.14558330E-02
0.13197402E-02
