atomic number =   77
effective nuclear charge =   77
electron count =   73
net charge =    4
basis set = approximate basis set limit (UGBS)      
exchange correlation functional = PW91PW91            
cutoff radius (picometer) =  400
number of shells =   75
prepared by = Thomas A. Manz      
prepared date = July 2010           
magnetization =    5
density in atomic units:
0.69292430E+05
0.38965582E+03
0.94184601E+02
0.51727169E+02
0.31016096E+02
0.14598686E+02
0.69172049E+01
0.37391040E+01
0.23452284E+01
0.16256391E+01
0.11675154E+01
0.83720201E+00
0.59312844E+00
0.41887656E+00
0.29450360E+00
0.20642284E+00
0.14441592E+00
0.10168340E+00
0.72599761E-01
0.52521236E-01
0.38440727E-01
0.28406873E-01
0.21147193E-01
0.15950531E-01
0.12177654E-01
0.93975309E-02
0.73327296E-02
0.57897815E-02
0.45862845E-02
0.36636998E-02
0.29675758E-02
0.24154119E-02
0.19648925E-02
0.16025401E-02
0.13184516E-02
0.10872720E-02
0.89578924E-03
0.74113812E-03
0.61604724E-03
0.51146105E-03
0.42423207E-03
0.35362146E-03
0.29526374E-03
0.24663794E-03
0.20652662E-03
0.17314313E-03
0.14543292E-03
0.12228618E-03
0.10281833E-03
0.86643573E-04
0.73159055E-04
0.61980594E-04
0.52542695E-04
0.44646680E-04
0.38110171E-04
0.32543514E-04
0.27801640E-04
0.23798448E-04
0.20431766E-04
0.17554019E-04
0.15099738E-04
0.13025372E-04
0.11247947E-04
0.97080911E-05
0.83709047E-05
0.72268340E-05
0.62484737E-05
0.53946251E-05
0.46529653E-05
0.40225059E-05
0.34826396E-05
0.30085844E-05
0.26013870E-05
0.22506356E-05
0.19407623E-05
