atomic number =   22
effective nuclear charge =   22
electron count =   17
net charge =    5
basis set = approximate basis set limit (UGBS)      
exchange correlation functional = PW91                
cutoff radius (picometer) =  500
number of shells =  100
prepared by = Thomas A. Manz      
prepared date = 2011                
magnetization =    1
density in atomic units:
0.80142500E+04
0.96438492E+02
0.39060112E+02
0.13792608E+02
0.46317883E+01
0.22630138E+01
0.15718851E+01
0.12969266E+01
0.10814271E+01
0.85312772E+00
0.63824391E+00
0.46482638E+00
0.32364389E+00
0.21718431E+00
0.14623582E+00
0.97392559E-01
0.62868409E-01
0.40600885E-01
0.26087008E-01
0.16461922E-01
0.10457319E-01
0.67018392E-02
0.42391038E-02
0.26734543E-02
0.16991304E-02
0.10775570E-02
0.68340625E-03
0.43860645E-03
0.28077798E-03
0.18125982E-03
0.11841218E-03
0.77219338E-04
0.50819061E-04
0.33591688E-04
0.22227046E-04
0.14626848E-04
0.95046735E-05
0.61025316E-05
0.39195579E-05
0.24614435E-05
0.15858282E-05
0.10614489E-05
0.68762233E-06
0.44023284E-06
0.29930868E-06
0.19778591E-06
0.15308459E-06
0.14197840E-06
0.12536552E-06
0.11843861E-06
0.10820914E-06
0.94396412E-07
0.81287943E-07
0.71566568E-07
0.62181677E-07
0.53775850E-07
0.46854023E-07
0.40288647E-07
0.34061895E-07
0.28218963E-07
0.23288854E-07
0.18363487E-07
0.15098612E-07
0.12061995E-07
0.96364214E-08
0.76768378E-08
0.60539525E-08
0.45656376E-08
0.34360965E-08
0.26036786E-08
0.20441659E-08
0.16517012E-08
0.13277374E-08
0.10195471E-08
0.79202750E-09
0.59829691E-09
0.43821066E-09
0.32907663E-09
0.24363311E-09
0.17612477E-09
0.12809961E-09
0.10196401E-09
0.78341937E-10
0.61445987E-10
0.48508596E-10
0.38112437E-10
0.29579970E-10
0.22656653E-10
0.17190655E-10
0.13353278E-10
0.10194302E-10
0.75707435E-11
0.57729776E-11
0.42795650E-11
0.31622944E-11
0.24186495E-11
0.17906211E-11
0.12949827E-11
0.99157596E-12
0.72236173E-12
