atomic number =   82
effective nuclear charge =   82
electron count =   82
net charge =    0
basis set = approximate basis set limit (UGBS)      
exchange correlation functional = PW91PW91            
cutoff radius (picometer) =  300
number of shells =   50
prepared by = Thomas A. Manz      
prepared date = July 2010           
magnetization =    2
density in atomic units:
0.84452828E+05
0.28274530E+03
0.83275650E+02
0.45029552E+02
0.18578728E+02
0.73786564E+01
0.40583882E+01
0.27807679E+01
0.19438106E+01
0.13460258E+01
0.90731251E+00
0.60519016E+00
0.41769367E+00
0.29012138E+00
0.20653749E+00
0.14986560E+00
0.11089457E+00
0.84982693E-01
0.65922387E-01
0.51907886E-01
0.41446887E-01
0.33437543E-01
0.27272221E-01
0.22406479E-01
0.18497713E-01
0.15335354E-01
0.12776433E-01
0.10727051E-01
0.89993598E-02
0.75580073E-02
0.63720238E-02
0.53746747E-02
0.45472989E-02
0.38469722E-02
0.32577156E-02
0.27678569E-02
0.23568477E-02
0.20065422E-02
0.17055714E-02
0.14538240E-02
0.12422246E-02
0.10593397E-02
0.90563181E-03
0.77559717E-03
0.66404638E-03
0.56972908E-03
0.48866641E-03
0.41934202E-03
0.36004602E-03
0.30972206E-03
