atomic number =   15
effective nuclear charge =   15
electron count =    9
net charge =    6
basis set = approximate basis set limit (UGBS)      
exchange correlation functional = PW91PW91            
cutoff radius (picometer) =  300
number of shells =   50
prepared by = Thomas A. Manz      
prepared date = July 2010           
magnetization =    1
density in atomic units:
0.43967398E+03
0.26111919E+02
0.12256939E+02
0.69635358E+01
0.35209749E+01
0.15443249E+01
0.65181488E+00
0.28177193E+00
0.11666825E+00
0.48162516E-01
0.19233869E-01
0.74532675E-02
0.30681847E-02
0.12313798E-02
0.49268623E-03
0.19429316E-03
0.74454401E-04
0.29878458E-04
0.11761563E-04
0.46196560E-05
0.18227483E-05
0.72840055E-06
0.29334117E-06
0.11846375E-06
0.47004523E-07
0.20562984E-07
0.93890300E-08
0.49225988E-08
0.24011206E-08
0.11483057E-08
0.60467398E-09
0.30601993E-09
0.14391992E-09
0.67166168E-10
0.30205918E-10
0.13327490E-10
0.57174101E-11
0.23808954E-11
0.93796574E-12
0.36650804E-12
0.14152419E-12
0.51596294E-13
0.18765800E-13
0.65016157E-14
0.21728100E-14
0.72247336E-15
0.23522727E-15
0.73557208E-16
0.22554649E-16
0.65815031E-17
