atomic number =   95
effective nuclear charge =   95
electron count =   96
net charge =   -1
basis set = approximate basis set limit (UGBS)      
exchange correlation functional = PW91                
cutoff radius (picometer) =  300
number of shells =   50
prepared by = Thomas A. Manz      
prepared date = 2012                
magnetization =    8
density in atomic units:
0.13191878E+06
0.32294876E+03
0.11848196E+03
0.40316219E+02
0.15065272E+02
0.88064384E+01
0.56392441E+01
0.35040884E+01
0.21390216E+01
0.13759480E+01
0.93314070E+00
0.66391450E+00
0.49686006E+00
0.37271017E+00
0.28055453E+00
0.20949900E+00
0.15518172E+00
0.11629166E+00
0.86538531E-01
0.64566538E-01
0.48480734E-01
0.36713455E-01
0.28219873E-01
0.21977382E-01
0.17400125E-01
0.13994722E-01
0.11502220E-01
0.96660731E-02
0.82390253E-02
0.71381796E-02
0.62784646E-02
0.55845799E-02
0.50178035E-02
0.45455056E-02
0.41412595E-02
0.37922252E-02
0.34903036E-02
0.32195507E-02
0.29701299E-02
0.27477522E-02
0.25435081E-02
0.23532212E-02
0.21803377E-02
0.20200976E-02
0.18712543E-02
0.17337102E-02
0.16050362E-02
0.14847429E-02
0.13729839E-02
0.12694781E-02
