atomic number =    6
effective nuclear charge =    6
electron count =    4
net charge =    2
basis set = approximate basis set limit (UGBS)      
exchange correlation functional = PW91PW91            
cutoff radius (picometer) =  300
number of shells =   50
prepared by = Thomas A. Manz      
prepared date = July 2010           
magnetization =    0
density in atomic units:
0.52750771E+02
0.14330366E+02
0.42446060E+01
0.12756182E+01
0.44479555E+00
0.21128145E+00
0.15430544E+00
0.13382675E+00
0.11641263E+00
0.98522365E-01
0.80165274E-01
0.63268058E-01
0.49777575E-01
0.38422279E-01
0.29497139E-01
0.22424608E-01
0.16932990E-01
0.12937719E-01
0.98269926E-02
0.74696490E-02
0.56953477E-02
0.43502906E-02
0.33389095E-02
0.25674712E-02
0.19744656E-02
0.15189243E-02
0.11711962E-02
0.90984377E-03
0.70385280E-03
0.54381019E-03
0.42159262E-03
0.32639605E-03
0.25338243E-03
0.19633323E-03
0.15209295E-03
0.11826798E-03
0.92131697E-04
0.71652408E-04
0.55482484E-04
0.43081531E-04
0.33545766E-04
0.26006514E-04
0.20196321E-04
0.15702386E-04
0.12168402E-04
0.94503084E-05
0.73287201E-05
0.56750810E-05
0.43776008E-05
0.33720826E-05
