atomic number =   99
effective nuclear charge =   99
electron count =   99
net charge =    0
basis set = approximate basis set limit (UGBS)      
exchange correlation functional = PW91PW91            
cutoff radius (picometer) =  300
number of shells =   50
prepared by = Thomas A. Manz      
prepared date = July 2010           
magnetization =    3
density in atomic units:
0.14860866E+06
0.34020703E+03
0.12363346E+03
0.37259022E+02
0.15839622E+02
0.10033086E+02
0.62263026E+01
0.37866011E+01
0.23283861E+01
0.15193950E+01
0.10346503E+01
0.72416705E+00
0.52656031E+00
0.38189963E+00
0.27731827E+00
0.20028760E+00
0.14371586E+00
0.10497794E+00
0.76419123E-01
0.55999126E-01
0.41552532E-01
0.31211251E-01
0.23880307E-01
0.18612344E-01
0.14760195E-01
0.11932031E-01
0.98426593E-02
0.82963882E-02
0.70784595E-02
0.61094663E-02
0.53386460E-02
0.46975380E-02
0.41645602E-02
0.37040315E-02
0.33037846E-02
0.29572486E-02
0.26516039E-02
0.23764323E-02
0.21262346E-02
0.19039378E-02
0.17056763E-02
0.15237076E-02
0.13613543E-02
0.12159563E-02
0.10840262E-02
0.96643047E-03
0.86004223E-03
0.76455052E-03
0.67900482E-03
0.60311932E-03
