atomic number =   78
effective nuclear charge =   78
electron count =   71
net charge =    7
basis set = approximate basis set limit (UGBS)      
exchange correlation functional = PW91PW91            
cutoff radius (picometer) =  500
number of shells =  100
prepared by = Thomas A. Manz      
prepared date = July 2010           
magnetization =    3
density in atomic units:
0.49986100E+06
0.55616492E+03
0.11898340E+03
0.56709194E+02
0.33980286E+02
0.17862249E+02
0.88060083E+01
0.46122055E+01
0.28676341E+01
0.19523711E+01
0.13709365E+01
0.97496712E+00
0.67516398E+00
0.45553571E+00
0.31009871E+00
0.21104701E+00
0.14051771E+00
0.94745539E-01
0.64606205E-01
0.43938417E-01
0.30678067E-01
0.21826414E-01
0.15660519E-01
0.11427799E-01
0.84797004E-02
0.63770371E-02
0.48528886E-02
0.37652596E-02
0.29402580E-02
0.23287090E-02
0.18548684E-02
0.15003926E-02
0.12153951E-02
0.99312665E-03
0.81875845E-03
0.67314459E-03
0.55578083E-03
0.46077705E-03
0.38380933E-03
0.31857894E-03
0.26667793E-03
0.22186602E-03
0.18486771E-03
0.15573199E-03
0.13044612E-03
0.10916869E-03
0.91882161E-04
0.77216057E-04
0.64987420E-04
0.54718086E-04
0.46101915E-04
0.38776823E-04
0.32763117E-04
0.27756832E-04
0.23516375E-04
0.19899533E-04
0.16899061E-04
0.14350629E-04
0.12169602E-04
0.10352646E-04
0.87572362E-05
0.74437185E-05
0.63436778E-05
0.53874305E-05
0.45729003E-05
0.38806970E-05
0.32929527E-05
0.27941933E-05
0.23682462E-05
0.20031423E-05
0.17057079E-05
0.14537704E-05
0.12412212E-05
0.10639636E-05
0.90979279E-06
0.77709956E-06
0.66517850E-06
0.56571429E-06
0.48535873E-06
0.41594225E-06
0.35453039E-06
0.30365607E-06
0.25874999E-06
0.22098763E-06
0.18884971E-06
0.16163840E-06
0.13649871E-06
0.11696957E-06
0.99669855E-07
0.84459330E-07
0.71924873E-07
0.61606556E-07
0.52298070E-07
0.44454652E-07
0.38073374E-07
0.32225028E-07
0.27249930E-07
0.22966660E-07
0.19442854E-07
0.16437896E-07
