atomic number =   77
effective nuclear charge =   77
electron count =   74
net charge =    3
basis set = approximate basis set limit (UGBS)      
exchange correlation functional = PW91PW91            
cutoff radius (picometer) =  500
number of shells =  100
prepared by = Thomas A. Manz      
prepared date = July 2010           
magnetization =    4
density in atomic units:
0.47974900E+06
0.54536902E+03
0.11836001E+03
0.54381088E+02
0.33569675E+02
0.18134119E+02
0.90407133E+01
0.47092490E+01
0.29159083E+01
0.20192685E+01
0.14676073E+01
0.10977883E+01
0.80893922E+00
0.58650941E+00
0.43128482E+00
0.31670603E+00
0.22959308E+00
0.16817366E+00
0.12381336E+00
0.91171108E-01
0.68049036E-01
0.51690631E-01
0.39307311E-01
0.30088861E-01
0.23378819E-01
0.18280236E-01
0.14409577E-01
0.11492377E-01
0.92120795E-02
0.74470998E-02
0.60983235E-02
0.49822037E-02
0.41177161E-02
0.34209928E-02
0.28461707E-02
0.23777478E-02
0.19887979E-02
0.16676455E-02
0.14059726E-02
0.11883087E-02
0.10026228E-02
0.85134659E-03
0.72313007E-03
0.61559869E-03
0.52651454E-03
0.44860342E-03
0.38287044E-03
0.32954934E-03
0.28276505E-03
0.24309236E-03
0.20922736E-03
0.18020955E-03
0.15562653E-03
0.13478792E-03
0.11683517E-03
0.10144301E-03
0.88024230E-04
0.76591481E-04
0.66811306E-04
0.58279282E-04
0.50990056E-04
0.44577184E-04
0.39037935E-04
0.34217166E-04
0.29968845E-04
0.26343716E-04
0.23159280E-04
0.20332527E-04
0.17844390E-04
0.15692984E-04
0.13766854E-04
0.12099075E-04
0.10623369E-04
0.93297858E-05
0.81866347E-05
0.71757854E-05
0.62674526E-05
0.55411706E-05
0.48983848E-05
0.43314694E-05
0.38278035E-05
0.33733509E-05
0.29757712E-05
0.26271998E-05
0.23218834E-05
0.20512816E-05
0.18105120E-05
0.15976203E-05
0.14082897E-05
0.12422720E-05
0.10942628E-05
0.96448571E-06
0.84890809E-06
0.74816580E-06
0.65851992E-06
0.57969834E-06
0.51080855E-06
0.44945668E-06
0.39567280E-06
0.34843171E-06
