atomic number =    8
effective nuclear charge =    8
electron count =    5
net charge =    3
basis set = approximate basis set limit (UGBS)      
exchange correlation functional = PW91PW91            
cutoff radius (picometer) =  300
number of shells =   50
prepared by = Thomas A. Manz      
prepared date = July 2010           
magnetization =    1
density in atomic units:
0.10241256E+03
0.17577427E+02
0.37315638E+01
0.11558282E+01
0.68511480E+00
0.52833939E+00
0.41081181E+00
0.30842423E+00
0.22093748E+00
0.15526597E+00
0.10643515E+00
0.72132148E-01
0.50219949E-01
0.34815688E-01
0.24388365E-01
0.17115245E-01
0.12026468E-01
0.86380653E-02
0.61865514E-02
0.44468422E-02
0.32132440E-02
0.23294215E-02
0.17000899E-02
0.12451161E-02
0.91343047E-03
0.67173177E-03
0.49635977E-03
0.37091022E-03
0.27661838E-03
0.20668075E-03
0.15558000E-03
0.11729229E-03
0.89039968E-04
0.67710724E-04
0.51621948E-04
0.39633309E-04
0.30503099E-04
0.23496168E-04
0.18086033E-04
0.14003078E-04
0.10852673E-04
0.83721061E-05
0.65698109E-05
0.52392888E-05
0.41743920E-05
0.33275182E-05
0.26553425E-05
0.21188300E-05
0.17016463E-05
0.13605388E-05
