atomic number =   45
effective nuclear charge =   45
electron count =   40
net charge =    5
basis set = approximate basis set limit (UGBS)      
exchange correlation functional = PW91PW91            
cutoff radius (picometer) =  300
number of shells =   50
prepared by = Thomas A. Manz      
prepared date = July 2010           
magnetization =    4
density in atomic units:
0.12239368E+05
0.12564675E+03
0.51117474E+02
0.22671871E+02
0.81744699E+01
0.32635579E+01
0.20555637E+01
0.15992314E+01
0.12135108E+01
0.87697339E+00
0.59421504E+00
0.38640079E+00
0.25281546E+00
0.16189621E+00
0.10420538E+00
0.67265384E-01
0.43454561E-01
0.29129753E-01
0.19576520E-01
0.13456052E-01
0.93667554E-02
0.66460702E-02
0.48269052E-02
0.35349191E-02
0.26416203E-02
0.19805292E-02
0.15149512E-02
0.11727150E-02
0.91066613E-03
0.71328098E-03
0.56171161E-03
0.44361260E-03
0.35190678E-03
0.27950609E-03
0.22304474E-03
0.17828938E-03
0.14346074E-03
0.11555164E-03
0.92727409E-04
0.74795375E-04
0.60359729E-04
0.48633046E-04
0.39340404E-04
0.31835541E-04
0.25763504E-04
0.20895459E-04
0.16923143E-04
0.13692416E-04
0.11069967E-04
0.89559580E-05
