atomic number =    8
effective nuclear charge =    8
electron count =   11
net charge =   -3
basis set = approximate basis set limit (UGBS)      
exchange correlation functional = PW91PW91            
cutoff radius (picometer) =  300
number of shells =   50
prepared by = Thomas A. Manz      
prepared date = July 2010           
magnetization =    1
density in atomic units:
0.10097576E+03
0.17863440E+02
0.42550707E+01
0.16318206E+01
0.10800474E+01
0.85156643E+00
0.68109304E+00
0.53780413E+00
0.41366053E+00
0.31597006E+00
0.23813136E+00
0.17878786E+00
0.13737136E+00
0.10555194E+00
0.82024828E-01
0.64081475E-01
0.50393958E-01
0.40444274E-01
0.32592710E-01
0.26490260E-01
0.21730909E-01
0.17961480E-01
0.14979719E-01
0.12571152E-01
0.10599601E-01
0.89771869E-02
0.76450915E-02
0.65636896E-02
0.56406967E-02
0.48612533E-02
0.42121769E-02
0.36598071E-02
0.31960572E-02
0.27983573E-02
0.24590334E-02
0.21728210E-02
0.19285782E-02
0.17165999E-02
0.15306821E-02
0.13717191E-02
0.12349146E-02
0.11133868E-02
0.10081666E-02
0.91621920E-03
0.83457766E-03
0.76284679E-03
0.69878023E-03
0.64159970E-03
0.59037161E-03
0.54476253E-03
