atomic number =   62
effective nuclear charge =   62
electron count =   62
net charge =    0
basis set = approximate basis set limit (UGBS)      
exchange correlation functional = PW91PW91            
cutoff radius (picometer) =  300
number of shells =   50
prepared by = Thomas A. Manz      
prepared date = July 2010           
magnetization =    6
density in atomic units:
0.34550262E+05
0.20974963E+03
0.57482994E+02
0.19410839E+02
0.13594661E+02
0.84442940E+01
0.45500212E+01
0.24819543E+01
0.14272486E+01
0.92781180E+00
0.65142912E+00
0.48032960E+00
0.36791664E+00
0.27912736E+00
0.21150506E+00
0.15792048E+00
0.11683155E+00
0.87234251E-01
0.64741835E-01
0.48220064E-01
0.36198854E-01
0.27504580E-01
0.21272326E-01
0.16725631E-01
0.13400623E-01
0.10946069E-01
0.91320388E-02
0.77948291E-02
0.67388909E-02
0.59039081E-02
0.52352971E-02
0.46787383E-02
0.42102234E-02
0.38006997E-02
0.34400148E-02
0.31212347E-02
0.28353790E-02
0.25733633E-02
0.23299588E-02
0.21099290E-02
0.19101258E-02
0.17236532E-02
0.15547950E-02
0.14011334E-02
0.12598936E-02
0.11322791E-02
0.10154526E-02
0.90942887E-03
0.81334275E-03
0.72728726E-03
