atomic number =   86
effective nuclear charge =   86
electron count =   84
net charge =    2
basis set = approximate basis set limit (UGBS)      
exchange correlation functional = PW91                
cutoff radius (picometer) =  300
number of shells =   50
prepared by = Thomas A. Manz      
prepared date = 2011                
magnetization =    2
density in atomic units:
0.97861414E+05
0.29341843E+03
0.95577148E+02
0.45560810E+02
0.16855503E+02
0.72765088E+01
0.45148730E+01
0.30939372E+01
0.20287817E+01
0.13005441E+01
0.82060766E+00
0.52593428E+00
0.36028522E+00
0.25485069E+00
0.18790562E+00
0.14227504E+00
0.10973784E+00
0.86852998E-01
0.68943314E-01
0.54972414E-01
0.43999776E-01
0.35266951E-01
0.28362852E-01
0.22828046E-01
0.18363569E-01
0.14769281E-01
0.11900831E-01
0.96499883E-02
0.78010773E-02
0.63045975E-02
0.51141325E-02
0.41480255E-02
0.33758206E-02
0.27465376E-02
0.22367446E-02
0.18290101E-02
0.14993305E-02
0.12287094E-02
0.10047924E-02
0.82430028E-03
0.67813980E-03
0.55633736E-03
0.45764461E-03
0.37717514E-03
0.31060286E-03
0.25632992E-03
0.21141020E-03
0.17444091E-03
0.14397423E-03
0.11907942E-03
