atomic number =   86
effective nuclear charge =   86
electron count =   85
net charge =    1
basis set = approximate basis set limit (UGBS)      
exchange correlation functional = PW91                
cutoff radius (picometer) =  300
number of shells =   50
prepared by = Thomas A. Manz      
prepared date = 2011                
magnetization =    1
density in atomic units:
0.97860148E+05
0.29342102E+03
0.95582794E+02
0.45559784E+02
0.16860498E+02
0.72871585E+01
0.45210629E+01
0.30937424E+01
0.20254230E+01
0.12979138E+01
0.82109541E+00
0.53022194E+00
0.36774078E+00
0.26470879E+00
0.19920224E+00
0.15415199E+00
0.12149916E+00
0.98024145E-01
0.79208143E-01
0.64168118E-01
0.52078795E-01
0.42250149E-01
0.34328770E-01
0.27869841E-01
0.22580668E-01
0.18266523E-01
0.14784262E-01
0.12025991E-01
0.97422106E-02
0.78816768E-02
0.63939760E-02
0.51819817E-02
0.42106202E-02
0.34178542E-02
0.27753273E-02
0.22616591E-02
0.18469169E-02
0.15071867E-02
0.12268990E-02
0.10018706E-02
0.82033762E-03
0.66975271E-03
0.54834230E-03
0.44984400E-03
0.36879894E-03
0.30310298E-03
0.24899378E-03
0.20467758E-03
0.16835667E-03
0.13881111E-03
