atomic number =   90
effective nuclear charge =   90
electron count =   90
net charge =    0
basis set = approximate basis set limit (UGBS)      
exchange correlation functional = PW91PW91            
cutoff radius (picometer) =  300
number of shells =   50
prepared by = Thomas A. Manz      
prepared date = July 2010           
magnetization =    2
density in atomic units:
0.11236668E+06
0.30491483E+03
0.10722845E+03
0.43966541E+02
0.15605270E+02
0.77750673E+01
0.49862905E+01
0.31877830E+01
0.19288024E+01
0.11835104E+01
0.76005995E+00
0.52495116E+00
0.39506337E+00
0.30624902E+00
0.24148668E+00
0.19026990E+00
0.14916274E+00
0.11781687E+00
0.92529200E-01
0.72411224E-01
0.57126421E-01
0.45235272E-01
0.36066104E-01
0.29221442E-01
0.23730798E-01
0.19653877E-01
0.16360795E-01
0.13889433E-01
0.11875258E-01
0.10181671E-01
0.88384701E-02
0.77081216E-02
0.67759715E-02
0.59736059E-02
0.52622776E-02
0.46751192E-02
0.41455198E-02
0.36716652E-02
0.32525556E-02
0.28792054E-02
0.25591648E-02
0.22650540E-02
0.20030872E-02
0.17739384E-02
0.15657052E-02
0.13833325E-02
0.12197227E-02
0.10753891E-02
0.94663556E-03
0.83408953E-03
