atomic number =   60
effective nuclear charge =   60
electron count =   58
net charge =    2
basis set = approximate basis set limit (UGBS)      
exchange correlation functional = PW91                
cutoff radius (picometer) =  300
number of shells =   50
prepared by = Thomas A. Manz      
prepared date = 2011                
magnetization =    4
density in atomic units:
0.31066840E+05
0.19974736E+03
0.58665413E+02
0.17878246E+02
0.11975366E+02
0.79536471E+01
0.44937496E+01
0.24775918E+01
0.14062803E+01
0.88367844E+00
0.61460996E+00
0.45601258E+00
0.35456216E+00
0.27607667E+00
0.21332641E+00
0.16288966E+00
0.12214228E+00
0.92046790E-01
0.68214558E-01
0.50147444E-01
0.36758494E-01
0.26767960E-01
0.19478165E-01
0.14155090E-01
0.10232782E-01
0.73770052E-02
0.53224224E-02
0.38647745E-02
0.27927202E-02
0.20104027E-02
0.14562833E-02
0.10519164E-02
0.76439301E-03
0.55545673E-03
0.40342903E-03
0.29575723E-03
0.21754316E-03
0.15986254E-03
0.11750097E-03
0.86619984E-04
0.64217922E-04
0.47413432E-04
0.35061894E-04
0.26106862E-04
0.19327334E-04
0.14389891E-04
0.10674717E-04
0.78906141E-05
0.58221544E-05
0.42610322E-05
