atomic number =   88
effective nuclear charge =   88
electron count =   89
net charge =   -1
basis set = approximate basis set limit (UGBS)      
exchange correlation functional = PW91                
cutoff radius (picometer) =  300
number of shells =   50
prepared by = Thomas A. Manz      
prepared date = 2011                
magnetization =    1
density in atomic units:
0.10498104E+06
0.29898679E+03
0.10160019E+03
0.44977127E+02
0.16151199E+02
0.74884658E+01
0.47722363E+01
0.31620121E+01
0.19806499E+01
0.12326398E+01
0.78006881E+00
0.52096528E+00
0.38005373E+00
0.28843078E+00
0.22596028E+00
0.17875820E+00
0.14146227E+00
0.11292210E+00
0.89292459E-01
0.70283078E-01
0.55191476E-01
0.43260947E-01
0.34012817E-01
0.26801722E-01
0.21203069E-01
0.16875619E-01
0.13586908E-01
0.11125732E-01
0.92009883E-02
0.77194669E-02
0.65906327E-02
0.57088849E-02
0.50225174E-02
0.44753915E-02
0.40330547E-02
0.36737416E-02
0.33763617E-02
0.31213346E-02
0.28962784E-02
0.27008858E-02
0.25265755E-02
0.23659521E-02
0.22204777E-02
0.20861588E-02
0.19603525E-02
0.18430767E-02
0.17319139E-02
0.16266935E-02
0.15270370E-02
0.14333490E-02
