atomic number =   76
effective nuclear charge =   76
electron count =   70
net charge =    6
basis set = approximate basis set limit (UGBS)      
exchange correlation functional = PW91PW91            
cutoff radius (picometer) =  300
number of shells =   50
prepared by = Thomas A. Manz      
prepared date = July 2010           
magnetization =    2
density in atomic units:
0.66481117E+05
0.26587195E+03
0.67385719E+02
0.39588501E+02
0.20314100E+02
0.85614386E+01
0.40349908E+01
0.23642445E+01
0.15208972E+01
0.10187659E+01
0.66731411E+00
0.42650247E+00
0.27609241E+00
0.17471802E+00
0.11070830E+00
0.69971375E-01
0.43856338E-01
0.28418545E-01
0.18314712E-01
0.12096219E-01
0.80601452E-02
0.55013383E-02
0.38761601E-02
0.27514917E-02
0.20201446E-02
0.14830779E-02
0.11252860E-02
0.86343312E-03
0.66641322E-03
0.52202406E-03
0.41026287E-03
0.32345267E-03
0.25556327E-03
0.20193787E-03
0.16063663E-03
0.12724866E-03
0.10174407E-03
0.81439539E-04
0.64830332E-04
0.51792700E-04
0.41232754E-04
0.32772434E-04
0.26218810E-04
0.21007954E-04
0.16890801E-04
0.13598958E-04
0.10934124E-04
0.87697808E-05
0.70336964E-05
0.56380218E-05
