atomic number =   55
effective nuclear charge =   55
electron count =   53
net charge =    2
basis set = approximate basis set limit (UGBS)      
exchange correlation functional = PW91                
cutoff radius (picometer) =  300
number of shells =   50
prepared by = Thomas A. Manz      
prepared date = 2011                
magnetization =    1
density in atomic units:
0.23431156E+05
0.17307367E+03
0.61559242E+02
0.17032255E+02
0.85065699E+01
0.62831082E+01
0.42289824E+01
0.25928092E+01
0.14933431E+01
0.87861854E+00
0.54529309E+00
0.36946115E+00
0.27778059E+00
0.21767507E+00
0.17486368E+00
0.14066154E+00
0.11233875E+00
0.89888655E-01
0.70862718E-01
0.55296957E-01
0.42810246E-01
0.32867491E-01
0.25126582E-01
0.19093424E-01
0.14410942E-01
0.10818114E-01
0.81043076E-02
0.61012185E-02
0.45612301E-02
0.34002233E-02
0.25433972E-02
0.18997950E-02
0.14245581E-02
0.10673366E-02
0.80057577E-03
0.60389243E-03
0.45716407E-03
0.34599696E-03
0.26102320E-03
0.19772659E-03
0.15028765E-03
0.11373464E-03
0.86289569E-04
0.65592940E-04
0.49693499E-04
0.37698341E-04
0.28537366E-04
0.21585289E-04
0.16311618E-04
0.12341397E-04
