atomic number =   80
effective nuclear charge =   80
electron count =   77
net charge =    3
basis set = approximate basis set limit (UGBS)      
exchange correlation functional = PW91PW91            
cutoff radius (picometer) =  300
number of shells =   50
prepared by = Thomas A. Manz      
prepared date = July 2010           
magnetization =    1
density in atomic units:
0.78163203E+05
0.27737186E+03
0.77406761E+02
0.43833263E+02
0.19371008E+02
0.76466827E+01
0.39207532E+01
0.25927622E+01
0.18243212E+01
0.12892865E+01
0.88819474E+00
0.59690440E+00
0.40875581E+00
0.27675593E+00
0.18811826E+00
0.12746267E+00
0.86699277E-01
0.60313497E-01
0.42037055E-01
0.29310470E-01
0.20718735E-01
0.14715646E-01
0.10542643E-01
0.76614749E-02
0.55721225E-02
0.41100327E-02
0.30417533E-02
0.22908698E-02
0.17253635E-02
0.12990674E-02
0.98715525E-03
0.75093977E-03
0.57490251E-03
0.44029122E-03
0.33717003E-03
0.26049494E-03
0.20151009E-03
0.15579128E-03
0.12024441E-03
0.93041184E-04
0.72377632E-04
0.55994587E-04
0.43382242E-04
0.33679877E-04
0.26028914E-04
0.20159652E-04
0.15571699E-04
0.12029511E-04
0.92669625E-05
0.71386603E-05
