atomic number =   22
effective nuclear charge =   22
electron count =   21
net charge =    1
basis set = approximate basis set limit (UGBS)      
exchange correlation functional = PW91                
cutoff radius (picometer) =  500
number of shells =  100
prepared by = Thomas A. Manz      
prepared date = 2011                
magnetization =    3
density in atomic units:
0.80040601E+04
0.96260849E+02
0.39056335E+02
0.13972094E+02
0.48333578E+01
0.24421878E+01
0.17401040E+01
0.14591844E+01
0.12440360E+01
0.10164123E+01
0.79436779E+00
0.61096913E+00
0.45477459E+00
0.33077034E+00
0.24342537E+00
0.17872544E+00
0.12960795E+00
0.95053889E-01
0.70170470E-01
0.51974520E-01
0.39144903E-01
0.30148454E-01
0.23371445E-01
0.18337425E-01
0.14683902E-01
0.11893541E-01
0.97563518E-02
0.81182430E-02
0.68125683E-02
0.57739839E-02
0.49598860E-02
0.42570638E-02
0.36949147E-02
0.32229049E-02
0.28162734E-02
0.24708065E-02
0.21707991E-02
0.19116023E-02
0.16903611E-02
0.14971769E-02
0.13251534E-02
0.11772936E-02
0.10459030E-02
0.93111122E-03
0.83068124E-03
0.73890091E-03
0.65808499E-03
0.58870396E-03
0.52550802E-03
0.46945186E-03
0.41952491E-03
0.37482454E-03
0.33542770E-03
0.30058800E-03
0.26934734E-03
0.24135805E-03
0.21609096E-03
0.19358934E-03
0.17354479E-03
0.15561665E-03
0.13959937E-03
0.12520775E-03
0.11240885E-03
0.10090524E-03
0.90543734E-04
0.81420170E-04
0.73218551E-04
0.65751236E-04
0.59040904E-04
0.53014344E-04
0.47657308E-04
0.42868480E-04
0.38538976E-04
0.34659119E-04
0.31144311E-04
0.27986858E-04
0.25146595E-04
0.22591721E-04
0.20301675E-04
0.18246130E-04
0.16394069E-04
0.14732848E-04
0.13247231E-04
0.11924546E-04
0.10746717E-04
0.96880467E-05
0.87372255E-05
0.78802732E-05
0.71043482E-05
0.63872503E-05
0.57516004E-05
0.51778593E-05
0.46572509E-05
0.41949893E-05
0.37778830E-05
0.34011077E-05
0.30649751E-05
0.27601388E-05
0.24835733E-05
0.22284005E-05
