atomic number =   85
effective nuclear charge =   85
electron count =   85
net charge =    0
basis set = approximate basis set limit (UGBS)      
exchange correlation functional = PW91PW91            
cutoff radius (picometer) =  300
number of shells =   50
prepared by = Thomas A. Manz      
prepared date = July 2010           
magnetization =    1
density in atomic units:
0.94403883E+05
0.29072293E+03
0.92502670E+02
0.45652142E+02
0.17275425E+02
0.72539787E+01
0.43960667E+01
0.30326364E+01
0.20250387E+01
0.13228309E+01
0.84771132E+00
0.54924071E+00
0.37900206E+00
0.27029407E+00
0.20167419E+00
0.15538865E+00
0.12263409E+00
0.99575430E-01
0.81322938E-01
0.66782042E-01
0.55037316E-01
0.45386113E-01
0.37493393E-01
0.30947126E-01
0.25487490E-01
0.20948349E-01
0.17214341E-01
0.14200650E-01
0.11660323E-01
0.95542194E-02
0.78420192E-02
0.64251577E-02
0.52730613E-02
0.43200804E-02
0.35381932E-02
0.29060820E-02
0.23905355E-02
0.19643193E-02
0.16097091E-02
0.13227353E-02
0.10897170E-02
0.89517044E-03
0.73731219E-03
0.60855917E-03
0.50198782E-03
0.41519283E-03
0.34329027E-03
0.28407178E-03
0.23525699E-03
0.19531789E-03
