atomic number =   40
effective nuclear charge =   40
electron count =   40
net charge =    0
basis set = approximate basis set limit (UGBS)      
exchange correlation functional = PW91PW91            
cutoff radius (picometer) =  500
number of shells =  100
prepared by = Thomas A. Manz      
prepared date = July 2010           
magnetization =    2
density in atomic units:
0.55763199E+05
0.25272325E+03
0.54041313E+02
0.30877142E+02
0.17487104E+02
0.91328516E+01
0.44124079E+01
0.21785882E+01
0.13134818E+01
0.94955355E+00
0.75815588E+00
0.62976545E+00
0.51596367E+00
0.41325033E+00
0.32996726E+00
0.26033804E+00
0.20145302E+00
0.15607218E+00
0.12081803E+00
0.93245335E-01
0.72810754E-01
0.57789344E-01
0.46119832E-01
0.37244849E-01
0.30643579E-01
0.25524691E-01
0.21540502E-01
0.18446116E-01
0.15933078E-01
0.13899158E-01
0.12255432E-01
0.10821667E-01
0.96300347E-02
0.86026490E-02
0.76958789E-02
0.68953866E-02
0.61801812E-02
0.55435183E-02
0.49825762E-02
0.44761929E-02
0.40166131E-02
0.36069525E-02
0.32348256E-02
0.29048175E-02
0.26077358E-02
0.23321726E-02
0.20862622E-02
0.18705253E-02
0.16725337E-02
0.14947129E-02
0.13348884E-02
0.11905434E-02
0.10627836E-02
0.94917067E-03
0.84692071E-03
0.75509155E-03
0.67228137E-03
0.59850950E-03
0.53291407E-03
0.47452081E-03
0.42237516E-03
0.37577961E-03
0.33447071E-03
0.29757051E-03
0.26462178E-03
0.23573704E-03
0.20995304E-03
0.18668266E-03
0.16599297E-03
0.14755006E-03
0.13132542E-03
0.11690007E-03
0.10401973E-03
0.92643422E-04
0.82437153E-04
0.73354851E-04
0.65280139E-04
0.58085567E-04
0.51709634E-04
0.46076657E-04
0.41030053E-04
0.36530557E-04
0.32519201E-04
0.28958822E-04
0.25821391E-04
0.23032741E-04
0.20531616E-04
0.18288603E-04
0.16289894E-04
0.14487216E-04
0.12902770E-04
0.11487926E-04
0.10214268E-04
0.90970916E-05
0.81003291E-05
0.72160860E-05
0.64260407E-05
0.57147072E-05
0.50831891E-05
0.45243628E-05
