atomic number =   77
effective nuclear charge =   77
electron count =   80
net charge =   -3
basis set = approximate basis set limit (UGBS)      
exchange correlation functional = PW91PW91            
cutoff radius (picometer) =  400
number of shells =   75
prepared by = Thomas A. Manz      
prepared date = July 2010           
magnetization =    0
density in atomic units:
0.69295055E+05
0.38962415E+03
0.94160439E+02
0.51745785E+02
0.31027277E+02
0.14591743E+02
0.69080625E+01
0.37430065E+01
0.23686168E+01
0.16681800E+01
0.12251722E+01
0.90524268E+00
0.66681415E+00
0.49399722E+00
0.36794612E+00
0.27607533E+00
0.20901878E+00
0.16071321E+00
0.12610137E+00
0.10074553E+00
0.81772313E-01
0.67230351E-01
0.55859704E-01
0.47001384E-01
0.39981749E-01
0.34315463E-01
0.29695146E-01
0.25902467E-01
0.22647439E-01
0.19904407E-01
0.17632397E-01
0.15659248E-01
0.13897302E-01
0.12347324E-01
0.11020457E-01
0.98427413E-02
0.87800017E-02
0.78443661E-02
0.70208632E-02
0.62716575E-02
0.55923131E-02
0.49950685E-02
0.44595147E-02
0.39763981E-02
0.35452831E-02
0.31580736E-02
0.28123807E-02
0.25014791E-02
0.22208989E-02
0.19711913E-02
0.17490148E-02
0.15519066E-02
0.13748325E-02
0.12175277E-02
0.10795485E-02
0.95564185E-03
0.84481650E-03
0.74717781E-03
0.66120969E-03
0.58474363E-03
0.51686290E-03
0.45732709E-03
0.40462334E-03
0.35779751E-03
0.31633762E-03
0.27976418E-03
0.24771792E-03
0.21923595E-03
0.19398729E-03
0.17193552E-03
0.15263828E-03
0.13531771E-03
0.11998590E-03
0.10652816E-03
0.94742696E-04
