atomic number =    6
effective nuclear charge =    6
electron count =   10
net charge =   -4
basis set = approximate basis set limit (UGBS)      
exchange correlation functional = PW91PW91            
cutoff radius (picometer) =  300
number of shells =   50
prepared by = Thomas A. Manz      
prepared date = July 2010           
magnetization =    0
density in atomic units:
0.51662056E+02
0.14195540E+02
0.43595757E+01
0.14348845E+01
0.58896673E+00
0.32957801E+00
0.25188571E+00
0.21774891E+00
0.19105336E+00
0.16686012E+00
0.14332922E+00
0.12162454E+00
0.10370381E+00
0.87845720E-01
0.74618213E-01
0.63399389E-01
0.54033596E-01
0.46654016E-01
0.40397145E-01
0.35187393E-01
0.30837337E-01
0.27145760E-01
0.24010381E-01
0.21285616E-01
0.18882561E-01
0.16748993E-01
0.14860774E-01
0.13213804E-01
0.11707229E-01
0.10347924E-01
0.91445874E-02
0.80600642E-02
0.71019442E-02
0.62409560E-02
0.54756762E-02
0.48068855E-02
0.42186962E-02
0.36954533E-02
0.32275235E-02
0.28212469E-02
0.24679371E-02
0.21524765E-02
0.18793624E-02
0.16417052E-02
0.14324278E-02
0.12510790E-02
0.10916326E-02
0.95239299E-03
0.83093886E-03
0.72586635E-03
