atomic number =   60
effective nuclear charge =   60
electron count =   57
net charge =    3
basis set = approximate basis set limit (UGBS)      
exchange correlation functional = PW91                
cutoff radius (picometer) =  300
number of shells =   50
prepared by = Thomas A. Manz      
prepared date = 2011                
magnetization =    3
density in atomic units:
0.31068928E+05
0.19990497E+03
0.58573105E+02
0.17789013E+02
0.11944782E+02
0.78684664E+01
0.44051657E+01
0.24114065E+01
0.13632215E+01
0.86533028E+00
0.60586298E+00
0.45142597E+00
0.35060710E+00
0.26997498E+00
0.20599848E+00
0.15409769E+00
0.11305008E+00
0.83025120E-01
0.59854038E-01
0.42709336E-01
0.30284392E-01
0.21325426E-01
0.14989176E-01
0.10488082E-01
0.72921035E-02
0.50435984E-02
0.34819199E-02
0.24191106E-02
0.16647035E-02
0.11396330E-02
0.78218098E-03
0.53457252E-03
0.36632846E-03
0.25020840E-03
0.17073733E-03
0.11716470E-03
0.80595644E-04
0.55259552E-04
0.37568643E-04
0.25595515E-04
0.17459257E-04
0.11810469E-04
0.79837564E-05
0.53755311E-05
0.35760766E-05
0.23670411E-05
0.15551817E-05
0.10165264E-05
0.65940941E-06
0.42217306E-06
