atomic number =   42
effective nuclear charge =   42
electron count =   40
net charge =    2
basis set = approximate basis set limit (UGBS)      
exchange correlation functional = PW91PW91            
cutoff radius (picometer) =  300
number of shells =   50
prepared by = Thomas A. Manz      
prepared date = July 2010           
magnetization =    4
density in atomic units:
0.97964863E+04
0.11712973E+03
0.43700932E+02
0.22808102E+02
0.94905691E+01
0.35640442E+01
0.17689515E+01
0.12450223E+01
0.98198485E+00
0.77991498E+00
0.59329182E+00
0.43518046E+00
0.31825259E+00
0.22755262E+00
0.16237137E+00
0.11530975E+00
0.81461944E-01
0.58865808E-01
0.42380255E-01
0.30905040E-01
0.22687303E-01
0.16857950E-01
0.12737088E-01
0.96690953E-02
0.74482565E-02
0.57438184E-02
0.45001218E-02
0.35612984E-02
0.28252888E-02
0.22597301E-02
0.18187464E-02
0.14700152E-02
0.11952911E-02
0.97511086E-03
0.80064312E-03
0.65980613E-03
0.54806500E-03
0.45651017E-03
0.37988104E-03
0.31806916E-03
0.26678902E-03
0.22378560E-03
0.18855603E-03
0.15910799E-03
0.13440986E-03
0.11376297E-03
0.96307820E-04
0.81531165E-04
0.69108413E-04
0.58667658E-04
