atomic number =   14
effective nuclear charge =   14
electron count =   16
net charge =   -2
basis set = approximate basis set limit (UGBS)      
exchange correlation functional = PW91PW91            
cutoff radius (picometer) =  300
number of shells =   50
prepared by = Thomas A. Manz      
prepared date = July 2010           
magnetization =    2
density in atomic units:
0.37029630E+03
0.25138943E+02
0.11393845E+02
0.70462027E+01
0.39798200E+01
0.19911741E+01
0.97544801E+00
0.50070155E+00
0.26450306E+00
0.15560955E+00
0.10428382E+00
0.80231868E-01
0.68858191E-01
0.61620690E-01
0.56125876E-01
0.51107746E-01
0.46258088E-01
0.41785091E-01
0.37411984E-01
0.33314493E-01
0.29548507E-01
0.26124207E-01
0.23081047E-01
0.20358618E-01
0.17938109E-01
0.15786888E-01
0.13909732E-01
0.12295503E-01
0.10846304E-01
0.95668202E-02
0.84521305E-02
0.74632228E-02
0.65980833E-02
0.58268737E-02
0.51452941E-02
0.45476547E-02
0.40222714E-02
0.35524943E-02
0.31285773E-02
0.27576291E-02
0.24306492E-02
0.21358260E-02
0.18777816E-02
0.16502449E-02
0.14478806E-02
0.12704468E-02
0.11129169E-02
0.97388634E-03
0.85161056E-03
0.74496830E-03
