atomic number =   74
effective nuclear charge =   74
electron count =   74
net charge =    0
basis set = approximate basis set limit (UGBS)      
exchange correlation functional = PW91PW91            
cutoff radius (picometer) =  400
number of shells =   75
prepared by = Thomas A. Manz      
prepared date = July 2010           
magnetization =    4
density in atomic units:
0.61072816E+05
0.36926971E+03
0.91217857E+02
0.44970444E+02
0.29349785E+02
0.15209290E+02
0.75115924E+01
0.39590540E+01
0.23552759E+01
0.15793114E+01
0.11289469E+01
0.82232994E+00
0.59940928E+00
0.43926403E+00
0.32278898E+00
0.23819549E+00
0.17680143E+00
0.13302016E+00
0.10212892E+00
0.79887033E-01
0.63616075E-01
0.51377766E-01
0.41998185E-01
0.34771424E-01
0.29123211E-01
0.24587998E-01
0.20894969E-01
0.17886071E-01
0.15292571E-01
0.13128034E-01
0.11337032E-01
0.98020229E-02
0.84500965E-02
0.72787134E-02
0.62980666E-02
0.54490608E-02
0.47023944E-02
0.40656077E-02
0.35223030E-02
0.30442628E-02
0.26258335E-02
0.22709691E-02
0.19644019E-02
0.16976497E-02
0.14684313E-02
0.12697865E-02
0.10988748E-02
0.95028098E-03
0.82094473E-03
0.70949760E-03
0.61363494E-03
0.53114962E-03
0.45935335E-03
0.39740148E-03
0.34456380E-03
0.29835687E-03
0.25809938E-03
0.22351895E-03
0.19380778E-03
0.16797159E-03
0.14551041E-03
0.12622419E-03
0.10952773E-03
0.94986695E-04
0.82383085E-04
0.71473863E-04
0.62065250E-04
0.53881206E-04
0.46741377E-04
0.40610983E-04
0.35328325E-04
0.30660627E-04
0.26597911E-04
0.23085813E-04
0.20047992E-04
