atomic number =   86
effective nuclear charge =   86
electron count =   83
net charge =    3
basis set = approximate basis set limit (UGBS)      
exchange correlation functional = PW91                
cutoff radius (picometer) =  300
number of shells =   50
prepared by = Thomas A. Manz      
prepared date = 2011                
magnetization =    3
density in atomic units:
0.97862523E+05
0.29341565E+03
0.95571518E+02
0.45561855E+02
0.16850388E+02
0.72657137E+01
0.45087094E+01
0.30942562E+01
0.20322225E+01
0.13031106E+01
0.81987035E+00
0.52127308E+00
0.35243449E+00
0.24467683E+00
0.17643847E+00
0.13039748E+00
0.98130077E-01
0.75949661E-01
0.59020579E-01
0.46151098E-01
0.36294017E-01
0.28630855E-01
0.22702506E-01
0.18043173E-01
0.14351338E-01
0.11428388E-01
0.91292886E-02
0.73483377E-02
0.59024640E-02
0.47442494E-02
0.38313766E-02
0.30961428E-02
0.25124371E-02
0.20394968E-02
0.16582058E-02
0.13543192E-02
0.11093414E-02
0.90862933E-03
0.74282486E-03
0.60928485E-03
0.50123897E-03
0.41120008E-03
0.33824804E-03
0.27871763E-03
0.22950071E-03
0.18933733E-03
0.15609757E-03
0.12873221E-03
0.10618390E-03
0.87730914E-04
