atomic number =   77
effective nuclear charge =   77
electron count =   74
net charge =    3
basis set = approximate basis set limit (UGBS)      
exchange correlation functional = PW91PW91            
cutoff radius (picometer) =  400
number of shells =   75
prepared by = Thomas A. Manz      
prepared date = July 2010           
magnetization =    4
density in atomic units:
0.69291805E+05
0.38966644E+03
0.94185646E+02
0.51732418E+02
0.31021559E+02
0.14594965E+02
0.69129248E+01
0.37416940E+01
0.23570151E+01
0.16463611E+01
0.11928891E+01
0.86472881E+00
0.62115270E+00
0.44539881E+00
0.31849802E+00
0.22722404E+00
0.16202094E+00
0.11634563E+00
0.84655039E-01
0.62460486E-01
0.46507794E-01
0.34984019E-01
0.26448585E-01
0.20298988E-01
0.15710568E-01
0.12285593E-01
0.97232200E-02
0.77428217E-02
0.62159868E-02
0.50018635E-02
0.40976857E-02
0.33621353E-02
0.27559800E-02
0.22708757E-02
0.18848884E-02
0.15678509E-02
0.13059326E-02
0.10900554E-02
0.91554940E-03
0.76873502E-03
0.64558786E-03
0.54494612E-03
0.46042976E-03
0.38990879E-03
0.33077411E-03
0.28152304E-03
0.23938673E-03
0.20463300E-03
0.17432444E-03
0.14921013E-03
0.12762283E-03
0.10980854E-03
0.94368457E-04
0.81311919E-04
0.70274473E-04
0.60767998E-04
0.52590200E-04
0.45566620E-04
0.39558887E-04
0.34382265E-04
0.29856266E-04
0.26000789E-04
0.22624774E-04
0.19723588E-04
0.17179815E-04
0.14929426E-04
0.13040972E-04
0.11330295E-04
0.98688733E-05
0.85744805E-05
0.74716809E-05
0.64850337E-05
0.56478566E-05
0.49556024E-05
0.43484679E-05
