atomic number =   22
effective nuclear charge =   22
electron count =   22
net charge =    0
basis set = approximate basis set limit (UGBS)      
exchange correlation functional = PW91PW91            
cutoff radius (picometer) =  400
number of shells =   75
prepared by = Thomas A. Manz      
prepared date = July 2010           
magnetization =    2
density in atomic units:
0.12782565E+04
0.72665245E+02
0.32044353E+02
0.12070117E+02
0.43670721E+01
0.21398482E+01
0.16055067E+01
0.13612814E+01
0.11144838E+01
0.86938375E+00
0.65369302E+00
0.47862819E+00
0.34449527E+00
0.24692652E+00
0.17683275E+00
0.12679413E+00
0.91508307E-01
0.67148045E-01
0.50453369E-01
0.38984206E-01
0.30746164E-01
0.24860347E-01
0.20435732E-01
0.17244764E-01
0.14739501E-01
0.12781367E-01
0.11232607E-01
0.99024866E-02
0.88087106E-02
0.78242943E-02
0.70255511E-02
0.62970407E-02
0.56299642E-02
0.50397171E-02
0.45192270E-02
0.40479572E-02
0.36200173E-02
0.32341753E-02
0.28936581E-02
0.25820651E-02
0.22986047E-02
0.20484482E-02
0.18231430E-02
0.16209153E-02
0.14403398E-02
0.12793611E-02
0.11350070E-02
0.10070619E-02
0.89111651E-03
0.78889378E-03
0.69783529E-03
0.61789184E-03
0.54611010E-03
0.48264296E-03
0.42706350E-03
0.37734368E-03
0.33300775E-03
0.29401874E-03
0.25975041E-03
0.22935160E-03
0.20238868E-03
0.17882156E-03
0.15793585E-03
0.13943602E-03
0.12304688E-03
0.10856518E-03
0.95969059E-04
0.84706902E-04
0.74781412E-04
0.66068329E-04
0.58462007E-04
0.51615250E-04
0.45526442E-04
0.40181982E-04
0.35507514E-04
