atomic number =   14
effective nuclear charge =   14
electron count =   11
net charge =    3
basis set = approximate basis set limit (UGBS)      
exchange correlation functional = PW91PW91            
cutoff radius (picometer) =  300
number of shells =   50
prepared by = Thomas A. Manz      
prepared date = July 2010           
magnetization =    1
density in atomic units:
0.37006345E+03
0.25020998E+02
0.11300231E+02
0.69947743E+01
0.39590633E+01
0.19850385E+01
0.97063613E+00
0.49110773E+00
0.24812192E+00
0.13279067E+00
0.76043010E-01
0.48085939E-01
0.34512233E-01
0.26313405E-01
0.20920536E-01
0.16861530E-01
0.13606584E-01
0.11057079E-01
0.88936472E-02
0.71074977E-02
0.56548845E-02
0.44780648E-02
0.35435283E-02
0.27985598E-02
0.22054154E-02
0.17367190E-02
0.13707032E-02
0.10901379E-02
0.86504547E-03
0.68697217E-03
0.54839265E-03
0.43815759E-03
0.35160207E-03
0.28215710E-03
0.22670122E-03
0.18291587E-03
0.14788698E-03
0.11942726E-03
0.96096592E-04
0.77464378E-04
0.62535444E-04
0.50224680E-04
0.40366609E-04
0.32451528E-04
0.26007508E-04
0.20846814E-04
0.16656582E-04
0.13280942E-04
0.10565992E-04
0.83953755E-05
