atomic number =   40
effective nuclear charge =   40
electron count =   38
net charge =    2
basis set = approximate basis set limit (UGBS)      
exchange correlation functional = PW91                
cutoff radius (picometer) =  400
number of shells =   75
prepared by = Thomas A. Manz      
prepared date = 2011                
magnetization =    2
density in atomic units:
0.83714404E+04
0.16154576E+03
0.46713894E+02
0.29085421E+02
0.16080870E+02
0.72934356E+01
0.33052728E+01
0.16944945E+01
0.10729301E+01
0.81559992E+00
0.66345185E+00
0.54085261E+00
0.43300959E+00
0.34063828E+00
0.26338315E+00
0.20032039E+00
0.15033160E+00
0.11212519E+00
0.83685763E-01
0.62731825E-01
0.46991609E-01
0.35346948E-01
0.26522463E-01
0.20175999E-01
0.15374440E-01
0.11809427E-01
0.91856048E-02
0.71296236E-02
0.56172563E-02
0.43965415E-02
0.35358295E-02
0.28359322E-02
0.22722348E-02
0.18416846E-02
0.15041538E-02
0.12329345E-02
0.10175025E-02
0.83985791E-03
0.70085505E-03
0.58616936E-03
0.49163727E-03
0.41513750E-03
0.35053759E-03
0.29774630E-03
0.25312259E-03
0.21663931E-03
0.18434254E-03
0.15886585E-03
0.13563744E-03
0.11678142E-03
0.10007284E-03
0.86672539E-04
0.74665266E-04
0.64509208E-04
0.55771139E-04
0.48248799E-04
0.41739153E-04
0.36092715E-04
0.31231037E-04
0.27075681E-04
0.23474206E-04
0.20444686E-04
0.17723965E-04
0.15409474E-04
0.13366589E-04
0.11546595E-04
0.10093944E-04
0.87299431E-05
0.75908320E-05
0.65813301E-05
0.57194557E-05
0.49642545E-05
0.42779570E-05
0.36977272E-05
0.32057842E-05
