atomic number =   78
effective nuclear charge =   78
electron count =   74
net charge =    4
basis set = approximate basis set limit (UGBS)      
exchange correlation functional = PW91PW91            
cutoff radius (picometer) =  300
number of shells =   50
prepared by = Thomas A. Manz      
prepared date = July 2010           
magnetization =    4
density in atomic units:
0.72177898E+05
0.27181778E+03
0.72049820E+02
0.41977821E+02
0.19983427E+02
0.80779696E+01
0.39154134E+01
0.24293442E+01
0.16444409E+01
0.11409522E+01
0.77521884E+00
0.51440823E+00
0.34788227E+00
0.23277032E+00
0.15694278E+00
0.10605858E+00
0.72355472E-01
0.50854344E-01
0.36068346E-01
0.25799314E-01
0.18825451E-01
0.13890694E-01
0.10384962E-01
0.79063307E-02
0.60417815E-02
0.46947263E-02
0.36628342E-02
0.29073581E-02
0.23112684E-02
0.18370544E-02
0.14733673E-02
0.11835344E-02
0.95680600E-03
0.77432900E-03
0.62646996E-03
0.51165157E-03
0.41792661E-03
0.34140146E-03
0.27909482E-03
0.22875480E-03
0.18892893E-03
0.15552893E-03
0.12835019E-03
0.10643170E-03
0.88126340E-04
0.73315474E-04
0.61035193E-04
0.50983821E-04
0.42638330E-04
0.35815578E-04
