atomic number =   72
effective nuclear charge =   72
electron count =   70
net charge =    2
basis set = approximate basis set limit (UGBS)      
exchange correlation functional = PW91PW91            
cutoff radius (picometer) =  300
number of shells =   50
prepared by = Thomas A. Manz      
prepared date = July 2010           
magnetization =    2
density in atomic units:
0.55948508E+05
0.25242915E+03
0.60401615E+02
0.33725563E+02
0.19918430E+02
0.93164454E+01
0.44216871E+01
0.24729848E+01
0.15469191E+01
0.10507203E+01
0.72481388E+00
0.49777815E+00
0.34891298E+00
0.24145548E+00
0.16749105E+00
0.11577684E+00
0.80208763E-01
0.57089753E-01
0.40962331E-01
0.29818907E-01
0.22208707E-01
0.16846020E-01
0.13035251E-01
0.10291778E-01
0.82113808E-02
0.66541974E-02
0.54378617E-02
0.45100530E-02
0.37505247E-02
0.31266140E-02
0.26252193E-02
0.22087449E-02
0.18673473E-02
0.15802232E-02
0.13387487E-02
0.11400990E-02
0.97268942E-03
0.83000713E-03
0.70777658E-03
0.60523523E-03
0.51930285E-03
0.44462443E-03
0.38155058E-03
0.32813419E-03
0.28201554E-03
0.24290879E-03
0.20915693E-03
0.18018858E-03
0.15527480E-03
0.13402577E-03
