atomic number =  105
effective nuclear charge =  105
electron count =  106
net charge =   -1
basis set = approximate basis set limit (UGBS)      
exchange correlation functional = PW91                
cutoff radius (picometer) =  300
number of shells =   50
prepared by = Thomas A. Manz      
prepared date = 2012                
magnetization =    4
density in atomic units:
0.17516330E+06
0.36979724E+03
0.12465076E+03
0.34723103E+02
0.18885326E+02
0.11944666E+02
0.68363886E+01
0.39952002E+01
0.24354017E+01
0.15860082E+01
0.10584737E+01
0.71519351E+00
0.50081241E+00
0.35016567E+00
0.24797465E+00
0.17696445E+00
0.12769161E+00
0.95407858E-01
0.72310299E-01
0.56134406E-01
0.44561952E-01
0.36128070E-01
0.29914193E-01
0.25102317E-01
0.21341553E-01
0.18271701E-01
0.15797298E-01
0.13767079E-01
0.12012530E-01
0.10511237E-01
0.92252018E-02
0.81009818E-02
0.71272589E-02
0.62673558E-02
0.55146371E-02
0.48574009E-02
0.42844284E-02
0.37751351E-02
0.33176215E-02
0.29196036E-02
0.25700468E-02
0.22564705E-02
0.19831755E-02
0.17429467E-02
0.15299733E-02
0.13437023E-02
0.11785551E-02
0.10329656E-02
0.90497668E-03
0.79332181E-03
