atomic number =  105
effective nuclear charge =  105
electron count =  107
net charge =   -2
basis set = approximate basis set limit (UGBS)      
exchange correlation functional = PW91                
cutoff radius (picometer) =  300
number of shells =   50
prepared by = Thomas A. Manz      
prepared date = 2012                
magnetization =    5
density in atomic units:
0.17516186E+06
0.36979327E+03
0.12465223E+03
0.34721416E+02
0.18885788E+02
0.11945518E+02
0.68355613E+01
0.39936562E+01
0.24341652E+01
0.15854640E+01
0.10587595E+01
0.71589023E+00
0.50168854E+00
0.35112399E+00
0.24885996E+00
0.17765461E+00
0.12834194E+00
0.95972754E-01
0.72911695E-01
0.56667827E-01
0.45152660E-01
0.36757112E-01
0.30561831E-01
0.25848620E-01
0.22135228E-01
0.19172188E-01
0.16760228E-01
0.14805547E-01
0.13117284E-01
0.11658975E-01
0.10411807E-01
0.93136095E-02
0.83537074E-02
0.75017600E-02
0.67357379E-02
0.60623894E-02
0.54609510E-02
0.49150828E-02
0.44154539E-02
0.39697583E-02
0.35708605E-02
0.32035124E-02
0.28749120E-02
0.25794806E-02
0.23106006E-02
0.20698954E-02
0.18512699E-02
0.16541302E-02
0.14765834E-02
0.13183085E-02
