atomic number =  100
effective nuclear charge =  100
electron count =  100
net charge =    0
basis set = approximate basis set limit (UGBS)      
exchange correlation functional = PW91PW91            
cutoff radius (picometer) =  300
number of shells =   50
prepared by = Thomas A. Manz      
prepared date = July 2010           
magnetization =    2
density in atomic units:
0.15291234E+06
0.34497324E+03
0.12432835E+03
0.36599380E+02
0.16193573E+02
0.10382853E+02
0.63875904E+01
0.38684480E+01
0.23816326E+01
0.15541512E+01
0.10566280E+01
0.73610032E+00
0.53193271E+00
0.38382077E+00
0.27718797E+00
0.19951154E+00
0.14257085E+00
0.10386290E+00
0.75340897E-01
0.55010207E-01
0.40643875E-01
0.30348362E-01
0.23052519E-01
0.17812321E-01
0.13985127E-01
0.11177659E-01
0.91166459E-02
0.75977109E-02
0.64136344E-02
0.54812897E-02
0.47498597E-02
0.41492470E-02
0.36570854E-02
0.32390771E-02
0.28792003E-02
0.25718766E-02
0.23034487E-02
0.20637035E-02
0.18473326E-02
0.16559084E-02
0.14857872E-02
0.13300406E-02
0.11912400E-02
0.10670407E-02
0.95422962E-03
0.85357984E-03
0.76235720E-03
0.68029750E-03
0.60658791E-03
0.54102548E-03
