atomic number =  105
effective nuclear charge =  105
electron count =  105
net charge =    0
basis set = approximate basis set limit (UGBS)      
exchange correlation functional = PW91PW91            
cutoff radius (picometer) =  300
number of shells =   50
prepared by = Thomas A. Manz      
prepared date = July 2010           
magnetization =    3
density in atomic units:
0.17516452E+06
0.36976993E+03
0.12466009E+03
0.34724503E+02
0.18882853E+02
0.11943329E+02
0.68390865E+01
0.40007572E+01
0.24400542E+01
0.15873505E+01
0.10575861E+01
0.71166402E+00
0.49611646E+00
0.34557423E+00
0.24340560E+00
0.17199476E+00
0.12363473E+00
0.91709420E-01
0.69674812E-01
0.53469159E-01
0.42528506E-01
0.34328017E-01
0.28010234E-01
0.23533016E-01
0.19643996E-01
0.16820669E-01
0.14280606E-01
0.12317237E-01
0.10610687E-01
0.90742614E-02
0.78131678E-02
0.67164428E-02
0.57934937E-02
0.49888496E-02
0.42756428E-02
0.36926193E-02
0.31747133E-02
0.27225427E-02
0.23331144E-02
0.19973051E-02
0.17186208E-02
0.14712467E-02
0.12588714E-02
0.10795486E-02
0.92260999E-03
0.78997877E-03
0.67522802E-03
0.57754485E-03
0.49336662E-03
0.42229312E-03
