atomic number =  106
effective nuclear charge =  106
electron count =  106
net charge =    0
basis set = approximate basis set limit (UGBS)      
exchange correlation functional = PW91PW91            
cutoff radius (picometer) =  500
number of shells =  100
prepared by = Thomas A. Manz      
prepared date = July 2010           
magnetization =    4
density in atomic units:
0.12480300E+07
0.80311230E+03
0.22650383E+03
0.69444901E+02
0.26311697E+02
0.18632483E+02
0.12917097E+02
0.80180178E+01
0.49739518E+01
0.31870577E+01
0.21383131E+01
0.15176843E+01
0.10884259E+01
0.78346914E+00
0.57964456E+00
0.43215808E+00
0.32022634E+00
0.24091496E+00
0.18306708E+00
0.14005852E+00
0.10919474E+00
0.87098196E-01
0.70062630E-01
0.57041261E-01
0.47281697E-01
0.39551206E-01
0.33391241E-01
0.28468102E-01
0.24375200E-01
0.20983877E-01
0.18217286E-01
0.15750786E-01
0.13710586E-01
0.11953027E-01
0.10409479E-01
0.90726716E-02
0.78986986E-02
0.68768892E-02
0.60007181E-02
0.52340603E-02
0.45551653E-02
0.39729387E-02
0.34603018E-02
0.30182197E-02
0.26351952E-02
0.22906326E-02
0.19924771E-02
0.17405432E-02
0.15156730E-02
0.13200666E-02
0.11495684E-02
0.10002208E-02
0.87163394E-03
0.76054491E-03
0.66332630E-03
0.57837495E-03
0.50365372E-03
0.43889461E-03
0.38275574E-03
0.33384777E-03
0.29135530E-03
0.25416742E-03
0.22193379E-03
0.19376633E-03
0.16908711E-03
0.14792448E-03
0.12940100E-03
0.11299689E-03
0.98690987E-04
0.86220440E-04
0.75416327E-04
0.66017667E-04
0.57749887E-04
0.50561215E-04
0.44238623E-04
0.38715512E-04
0.33875454E-04
0.29638841E-04
0.25921858E-04
0.22693925E-04
0.19858713E-04
0.17350656E-04
0.15152431E-04
0.13231120E-04
0.11568586E-04
0.10111784E-04
0.88329389E-05
0.77076984E-05
0.67162659E-05
0.58387441E-05
0.50826870E-05
0.44188132E-05
0.38431658E-05
0.33357367E-05
0.29112985E-05
0.25464878E-05
0.22281167E-05
0.19503198E-05
0.17052600E-05
0.14918776E-05
