atomic number =  106
effective nuclear charge =  106
electron count =  106
net charge =    0
basis set = approximate basis set limit (UGBS)      
exchange correlation functional = PW91PW91            
cutoff radius (picometer) =  400
number of shells =   75
prepared by = Thomas A. Manz      
prepared date = July 2010           
magnetization =    4
density in atomic units:
0.17974630E+06
0.48140930E+03
0.18321799E+03
0.58211639E+02
0.24942236E+02
0.16708542E+02
0.10833858E+02
0.64641552E+01
0.38650727E+01
0.24641454E+01
0.16699970E+01
0.11688792E+01
0.82994848E+00
0.59814656E+00
0.43443662E+00
0.31717667E+00
0.23289773E+00
0.17325668E+00
0.13139102E+00
0.10171719E+00
0.80008551E-01
0.64008951E-01
0.51775403E-01
0.42661220E-01
0.35490800E-01
0.29829562E-01
0.25324332E-01
0.21564050E-01
0.18464008E-01
0.15794190E-01
0.13661172E-01
0.11798692E-01
0.10157765E-01
0.87561253E-02
0.75733336E-02
0.65467809E-02
0.56509017E-02
0.48779245E-02
0.42223786E-02
0.36461717E-02
0.31424377E-02
0.27150377E-02
0.23443622E-02
0.20235877E-02
0.17472053E-02
0.15091768E-02
0.13026459E-02
0.11256733E-02
0.97013958E-03
0.83726097E-03
0.72231703E-03
0.62442682E-03
0.53892809E-03
0.46543634E-03
0.40274710E-03
0.34811796E-03
0.30065677E-03
0.25993580E-03
0.22499278E-03
0.19471091E-03
0.16840409E-03
0.14591348E-03
0.12639011E-03
0.10946990E-03
0.94788986E-04
0.82074155E-04
0.71251190E-04
0.61739498E-04
0.53489101E-04
0.46399640E-04
0.40329378E-04
0.34977300E-04
0.30296133E-04
0.26249490E-04
0.22772832E-04
