atomic number =    9
effective nuclear charge =    9
electron count =    4
net charge =    5
basis set = approximate basis set limit (UGBS)      
exchange correlation functional = PW91PW91            
cutoff radius (picometer) =  400
number of shells =   75
prepared by = Thomas A. Manz      
prepared date = July 2010           
net magnetization =    0
density in atomic units:
0.13133287E+03
0.25895174E+02
0.50877705E+01
0.12730911E+01
0.59910047E+00
0.45452830E+00
0.37521240E+00
0.29438964E+00
0.22001603E+00
0.15964960E+00
0.11447380E+00
0.81069611E-01
0.56791667E-01
0.39787758E-01
0.27786832E-01
0.19315694E-01
0.13340523E-01
0.92083747E-02
0.63925022E-02
0.44564181E-02
0.31136158E-02
0.21752315E-02
0.15146313E-02
0.10587282E-02
0.74203924E-03
0.52073016E-03
0.36622654E-03
0.25871015E-03
0.18146641E-03
0.12747398E-03
0.90699024E-04
0.64541855E-04
0.45586356E-04
0.32156273E-04
0.22923516E-04
0.16363438E-04
0.11627139E-04
0.83039140E-05
0.59686099E-05
0.42732536E-05
0.30485921E-05
0.21901781E-05
0.15754874E-05
0.11315423E-05
0.81436849E-06
0.58591371E-06
0.42177876E-06
0.30324009E-06
0.21711888E-06
0.15552138E-06
0.11136034E-06
0.79791903E-07
0.56941214E-07
0.40581789E-07
0.29013068E-07
0.20640424E-07
0.14614542E-07
0.10349479E-07
0.73317770E-08
0.51770011E-08
0.36424157E-08
0.25648290E-08
0.18018139E-08
0.12602653E-08
0.87883056E-09
0.61125710E-09
0.42539991E-09
0.29468991E-09
0.20342515E-09
0.14077957E-09
0.97849763E-10
0.67791189E-10
0.47120731E-10
0.33122026E-10
0.23666387E-10
