atomic number =   85
effective nuclear charge =   85
electron count =   80
net charge =    5
basis set = approximate basis set limit (UGBS)      
exchange correlation functional = PW91PW91            
cutoff radius (picometer) =  300
number of shells =   50
prepared by = Thomas A. Manz      
prepared date = July 2010           
net magnetization =    0
density in atomic units:
0.94403188E+05
0.29058682E+03
0.92320450E+02
0.45621017E+02
0.17243078E+02
0.71643486E+01
0.43178678E+01
0.29941652E+01
0.20160449E+01
0.13221747E+01
0.84020293E+00
0.52843124E+00
0.34576893E+00
0.22731502E+00
0.15286511E+00
0.10431138E+00
0.72134525E-01
0.51555503E-01
0.37021916E-01
0.26818996E-01
0.19589454E-01
0.14373806E-01
0.10618213E-01
0.78650704E-02
0.58272481E-02
0.43183598E-02
0.32077986E-02
0.24022395E-02
0.17895073E-02
0.13304121E-02
0.99246309E-03
0.73876331E-03
0.55134360E-03
0.41047225E-03
0.30538693E-03
0.22809442E-03
0.17069491E-03
0.12748038E-03
0.94756462E-04
0.70677714E-04
0.52876891E-04
0.39363771E-04
0.29397503E-04
0.22005934E-04
0.16446960E-04
0.12332669E-04
0.92359869E-05
0.69235916E-05
0.51944903E-05
0.39102943E-05
