atomic number =  101
effective nuclear charge =  101
electron count =   80
net charge =   21
basis set = approximate basis set limit (UGBS)      
exchange correlation functional = PW91PW91            
cutoff radius (picometer) =  500
number of shells =  100
prepared by = Thomas A. Manz      
prepared date = July 2010           
net magnetization =    0
density in atomic units:
0.10914235E+07
0.75282886E+03
0.19920830E+03
0.74608482E+02
0.23933670E+02
0.13488023E+02
0.88826294E+01
0.53768859E+01
0.30940728E+01
0.17193024E+01
0.95097417E+00
0.55342841E+00
0.32815468E+00
0.19962148E+00
0.12932993E+00
0.86197786E-01
0.57215568E-01
0.38633119E-01
0.26212009E-01
0.17604738E-01
0.11927948E-01
0.81519298E-02
0.55105863E-02
0.37132467E-02
0.25150303E-02
0.16960308E-02
0.11399185E-02
0.77056728E-03
0.51685725E-03
0.34718378E-03
0.23420279E-03
0.15682064E-03
0.10537598E-03
0.70957656E-04
0.47741018E-04
0.32004980E-04
0.21428617E-04
0.14382297E-04
0.97274242E-05
0.65787744E-05
0.44620792E-05
0.30421320E-05
0.20785033E-05
0.14399888E-05
0.10018588E-05
0.69445559E-06
0.48552408E-06
0.34334556E-06
0.24260731E-06
0.17196253E-06
0.12211878E-06
0.86496854E-07
0.61465222E-07
0.43585594E-07
0.30762891E-07
0.21437568E-07
0.14733514E-07
0.99609059E-08
0.66109127E-08
0.42744865E-08
0.26725737E-08
0.16028406E-08
0.91993807E-09
0.50389931E-09
0.27601593E-09
0.17588227E-09
0.15644015E-09
0.18605043E-09
0.24180130E-09
0.30710706E-09
0.37045012E-09
0.42438694E-09
0.46730292E-09
0.49603865E-09
0.51003524E-09
0.51013699E-09
0.49976212E-09
0.47921489E-09
0.44889253E-09
0.41570186E-09
0.37666165E-09
0.33610650E-09
0.29494404E-09
0.25465544E-09
0.21664644E-09
0.18176019E-09
0.14980572E-09
0.12148184E-09
0.97147762E-10
0.76294117E-10
0.59609734E-10
0.46287169E-10
0.36159985E-10
0.29281976E-10
0.25023442E-10
0.22991636E-10
0.22954723E-10
0.24506281E-10
0.27270977E-10
0.30924058E-10
