atomic number =   85
effective nuclear charge =   85
electron count =   18
net charge =   67
basis set = approximate basis set limit (UGBS)      
exchange correlation functional = PW91PW91            
cutoff radius (picometer) =  300
number of shells =   50
prepared by = Thomas A. Manz      
prepared date = July 2010           
net magnetization =    0
density in atomic units:
0.92932555E+05
0.11450964E+03
0.92248640E+01
0.33328146E+00
0.10176599E-01
0.23910204E-03
0.46282025E-05
0.68430052E-06
0.57312196E-07
0.23079890E-06
0.16989773E-06
0.29040823E-07
0.11825804E-07
0.36393228E-07
0.37658921E-07
0.19685682E-07
0.48257145E-08
0.10545729E-08
0.33792880E-08
0.60635523E-08
0.64355494E-08
0.48399591E-08
0.26903095E-08
0.10364067E-08
0.24727176E-09
0.18455959E-09
0.48568849E-09
0.81984453E-09
0.10172873E-08
0.10217895E-08
0.87226742E-09
0.64331307E-09
0.41020207E-09
0.21806937E-09
0.91114956E-10
0.30409009E-10
0.20376307E-10
0.42664410E-10
0.79848801E-10
0.11658387E-09
0.14386030E-09
0.15802307E-09
0.15823561E-09
0.14684309E-09
0.12729756E-09
0.10363265E-09
0.78856768E-10
0.55818017E-10
0.36301014E-10
0.21359456E-10
