atomic number =   85
effective nuclear charge =   85
electron count =   12
net charge =   73
basis set = approximate basis set limit (UGBS)      
exchange correlation functional = PW91PW91            
cutoff radius (picometer) =  300
number of shells =   50
prepared by = Thomas A. Manz      
prepared date = July 2010           
net magnetization =    0
density in atomic units:
0.92829727E+05
0.33216354E+02
0.22671990E+01
0.70614502E-01
0.17752906E-02
0.29345971E-04
0.18594070E-05
0.66259975E-06
0.49480168E-07
0.21608842E-06
0.14366839E-06
0.17456808E-07
0.10645293E-07
0.35096434E-07
0.33858882E-07
0.15876527E-07
0.27769049E-08
0.48517118E-09
0.33456506E-08
0.58685945E-08
0.59288672E-08
0.41933093E-08
0.21189037E-08
0.65614664E-09
0.61289342E-10
0.12838376E-09
0.48093013E-09
0.80968043E-09
0.97526220E-09
0.94653030E-09
0.77743778E-09
0.54608351E-09
0.32450670E-09
0.15219964E-09
0.47002593E-10
0.51321503E-11
0.88207800E-11
0.39248018E-10
0.79586622E-10
0.11571061E-09
0.14020297E-09
0.15075974E-09
0.14765937E-09
0.13387159E-09
0.11309369E-09
0.89353878E-10
0.65466167E-10
0.44049545E-10
0.26569474E-10
0.13768947E-10
