atomic number =   84
effective nuclear charge =   84
electron count =   80
net charge =    4
basis set = approximate basis set limit (UGBS)      
exchange correlation functional = PW91PW91            
cutoff radius (picometer) =  500
number of shells =  100
prepared by = Thomas A. Manz      
prepared date = July 2010           
net magnetization =    0
density in atomic units:
0.63082619E+06
0.61852063E+03
0.12841484E+03
0.69998360E+02
0.33864136E+02
0.15433811E+02
0.77059379E+01
0.47320042E+01
0.34082136E+01
0.25010047E+01
0.17996634E+01
0.12909037E+01
0.90408921E+00
0.62482375E+00
0.44250527E+00
0.31657201E+00
0.22524229E+00
0.16344400E+00
0.12023011E+00
0.88830046E-01
0.66875808E-01
0.51190209E-01
0.39240841E-01
0.30250298E-01
0.23543227E-01
0.18364469E-01
0.14357555E-01
0.11304283E-01
0.88856332E-02
0.70103081E-02
0.55555445E-02
0.43919198E-02
0.34839504E-02
0.27700837E-02
0.22029586E-02
0.17483511E-02
0.13864688E-02
0.11001889E-02
0.87596633E-03
0.69609267E-03
0.55308087E-03
0.43958731E-03
0.34884131E-03
0.27834275E-03
0.22191789E-03
0.17589719E-03
0.13976138E-03
0.11158305E-03
0.88808134E-04
0.70682669E-04
0.56269015E-04
0.44736782E-04
0.35689660E-04
0.28536613E-04
0.22805019E-04
0.18217363E-04
0.14534230E-04
0.11603156E-04
0.92768614E-05
0.74274471E-05
0.59458280E-05
0.47604049E-05
0.38169051E-05
0.30597273E-05
0.24515662E-05
0.19709735E-05
0.15850421E-05
0.12710756E-05
0.10196121E-05
0.81714461E-06
0.65661459E-06
0.52781530E-06
0.42373895E-06
0.34065377E-06
0.27327746E-06
0.21912382E-06
0.17572800E-06
0.14077865E-06
0.11282737E-06
0.90550422E-07
0.72488135E-07
0.57927604E-07
0.46240395E-07
0.36892803E-07
0.29482930E-07
0.23576792E-07
0.18820321E-07
0.15014548E-07
0.11968362E-07
0.95112878E-08
0.75706721E-08
0.60131313E-08
0.47615698E-08
0.37763277E-08
0.29880967E-08
0.23594149E-08
0.18630912E-08
0.14668320E-08
0.11511011E-08
0.90217833E-09
