atomic number =   78
effective nuclear charge =   78
electron count =   10
net charge =   68
basis set = approximate basis set limit (UGBS)      
exchange correlation functional = PW91PW91            
cutoff radius (picometer) =  400
number of shells =   75
prepared by = Thomas A. Manz      
prepared date = July 2010           
net magnetization =    0
density in atomic units:
0.69144938E+05
0.17695518E+02
0.86455666E-01
0.21932267E-03
0.51232137E-05
0.41596809E-05
0.31979582E-06
0.78565699E-06
0.34924329E-06
0.27290499E-07
0.12788992E-06
0.11691033E-06
0.33751611E-07
0.22357536E-08
0.13045517E-07
0.23507621E-07
0.19519584E-07
0.91765875E-08
0.20121911E-08
0.21145150E-09
0.14853765E-08
0.31880922E-08
0.38640806E-08
0.33603536E-08
0.22530782E-08
0.11387504E-08
0.37762465E-09
0.49005796E-10
0.53961103E-10
0.23223820E-09
0.43087878E-09
0.56837685E-09
0.61172867E-09
0.56465588E-09
0.46083548E-09
0.33333850E-09
0.20924892E-09
0.11071218E-09
0.45157867E-10
0.10382337E-10
0.19262909E-11
0.11720964E-10
0.31141430E-10
0.53216702E-10
0.72545490E-10
0.86213092E-10
0.92954928E-10
0.92905454E-10
0.87094228E-10
0.77076630E-10
0.64624951E-10
0.51366984E-10
0.38399357E-10
0.26816355E-10
0.17304439E-10
0.99081646E-11
0.47096589E-11
0.16147106E-11
0.28989886E-12
0.35308876E-12
0.14290507E-11
0.31357642E-11
0.51637926E-11
0.72585570E-11
0.92002343E-11
0.10839780E-10
0.12082767E-10
0.12911441E-10
0.13311493E-10
0.13299884E-10
0.12944315E-10
0.12288043E-10
0.11397124E-10
0.10346843E-10
0.92050291E-11
