atomic number =   78
effective nuclear charge =   78
electron count =   62
net charge =   16
basis set = approximate basis set limit (UGBS)      
exchange correlation functional = PW91PW91            
cutoff radius (picometer) =  500
number of shells =  100
prepared by = Thomas A. Manz      
prepared date = July 2010           
net magnetization =    0
density in atomic units:
0.49981584E+06
0.55136871E+03
0.11808151E+03
0.54531830E+02
0.33219120E+02
0.17782232E+02
0.85152817E+01
0.38966575E+01
0.19265476E+01
0.10081869E+01
0.54942822E+00
0.31715536E+00
0.18207960E+00
0.10303733E+00
0.60226671E-01
0.35416678E-01
0.20277895E-01
0.11729554E-01
0.67895669E-02
0.38560145E-02
0.22127312E-02
0.12862501E-02
0.73696062E-03
0.42128054E-03
0.24322627E-03
0.14002762E-03
0.80454221E-04
0.46757214E-04
0.26968186E-04
0.15632806E-04
0.91511602E-05
0.53234644E-05
0.31233217E-05
0.18448600E-05
0.10920164E-05
0.64467679E-06
0.38020252E-06
0.22457486E-06
0.13348259E-06
0.78818267E-07
0.46301139E-07
0.27091881E-07
0.15693718E-07
0.91534993E-08
0.53130838E-08
0.30467810E-08
0.17773094E-08
0.10800992E-08
0.68556660E-09
0.46602300E-09
0.34137235E-09
0.26517333E-09
0.21444593E-09
0.17601789E-09
0.14364829E-09
0.11520783E-09
0.90001111E-10
0.68393152E-10
0.50593196E-10
0.36687649E-10
0.26473096E-10
0.19697381E-10
0.15943618E-10
0.14653279E-10
0.15268301E-10
0.17181152E-10
0.19903926E-10
0.23019317E-10
0.26119511E-10
0.28921763E-10
0.31169615E-10
0.32799034E-10
0.33758610E-10
0.33978209E-10
0.33615083E-10
0.32607254E-10
0.31107630E-10
0.29182951E-10
0.26974770E-10
0.24577044E-10
0.22048842E-10
0.19487040E-10
0.16975954E-10
0.14564343E-10
0.12333935E-10
0.10298786E-10
0.84670430E-11
0.68655975E-11
0.54871398E-11
0.43186709E-11
0.33810550E-11
0.26424761E-11
0.20844309E-11
0.16990890E-11
0.14589266E-11
0.13446717E-11
0.13344317E-11
0.14061716E-11
0.15487313E-11
0.17385569E-11
