atomic number =   92
effective nuclear charge =   92
electron count =   78
net charge =   14
basis set = approximate basis set limit (UGBS)      
exchange correlation functional = PW91PW91            
cutoff radius (picometer) =  300
number of shells =   50
prepared by = Thomas A. Manz      
prepared date = July 2010           
net magnetization =    0
density in atomic units:
0.11994638E+06
0.30994153E+03
0.11123447E+03
0.42525795E+02
0.14743798E+02
0.75725904E+01
0.48775806E+01
0.30428364E+01
0.17261977E+01
0.93093789E+00
0.47599792E+00
0.23575462E+00
0.12155405E+00
0.61394241E-01
0.31007737E-01
0.15488949E-01
0.76149581E-02
0.38834224E-02
0.19585867E-02
0.99057041E-03
0.50372677E-03
0.25557965E-03
0.12994610E-03
0.65729786E-04
0.32929369E-04
0.16427899E-04
0.82411825E-05
0.42513539E-05
0.22035601E-05
0.11606610E-05
0.63115266E-06
0.34935798E-06
0.19809904E-06
0.11313160E-06
0.64708352E-07
0.37111484E-07
0.21050029E-07
0.11637786E-07
0.61762555E-08
0.31869356E-08
0.16147503E-08
0.82066975E-09
0.47079934E-09
0.34253822E-09
0.31172001E-09
0.31397238E-09
0.31737971E-09
0.30954425E-09
0.28830363E-09
0.25694966E-09
