atomic number =   96
effective nuclear charge =   96
electron count =   86
net charge =   10
basis set = approximate basis set limit (UGBS)      
exchange correlation functional = PW91PW91            
cutoff radius (picometer) =  500
number of shells =  100
prepared by = Thomas A. Manz      
prepared date = July 2010           
net magnetization =    0
density in atomic units:
0.94351044E+06
0.71990466E+03
0.17671005E+03
0.78460464E+02
0.26369303E+02
0.13366135E+02
0.87479630E+01
0.56882482E+01
0.35630615E+01
0.21667252E+01
0.13409712E+01
0.89869946E+00
0.63829780E+00
0.47737521E+00
0.37582317E+00
0.30057055E+00
0.23838286E+00
0.18928091E+00
0.14931279E+00
0.11609775E+00
0.90150975E-01
0.69977373E-01
0.53690020E-01
0.40964924E-01
0.31288192E-01
0.23781355E-01
0.18015403E-01
0.13690048E-01
0.10341681E-01
0.78192828E-02
0.59274863E-02
0.44707227E-02
0.33802565E-02
0.25597280E-02
0.19372081E-02
0.14620576E-02
0.11023110E-02
0.83206291E-03
0.63103775E-03
0.47793696E-03
0.36225782E-03
0.27502503E-03
0.20866095E-03
0.15952413E-03
0.12197754E-03
0.92712849E-04
0.70714785E-04
0.54270549E-04
0.41503121E-04
0.31736876E-04
0.24269002E-04
0.18515246E-04
0.14170560E-04
0.10862469E-04
0.83121058E-05
0.63462785E-05
0.48316138E-05
0.36752001E-05
0.27950298E-05
0.21259864E-05
0.16138648E-05
0.12229730E-05
0.92664277E-06
0.70068330E-06
0.52853852E-06
0.39983794E-06
0.30200999E-06
0.22685347E-06
0.17011068E-06
0.12715391E-06
0.95162079E-07
0.71094945E-07
0.52931796E-07
0.39411223E-07
0.29186541E-07
0.21550237E-07
0.15880712E-07
0.11657376E-07
0.85408711E-08
0.62597811E-08
0.45669974E-08
0.33199989E-08
0.24085529E-08
0.17452433E-08
0.12715244E-08
0.92894059E-09
0.67896738E-09
0.50013260E-09
0.36997097E-09
0.27629443E-09
0.20969410E-09
0.16196880E-09
0.12794045E-09
0.10441986E-09
0.88245085E-10
0.77637327E-10
0.71340808E-10
0.68373002E-10
0.68028028E-10
0.70006646E-10
