atomic number =   14
effective nuclear charge =   14
electron count =   12
net charge =    2
basis set = approximate basis set limit (UGBS)      
exchange correlation functional = PW91PW91            
cutoff radius (picometer) =  500
number of shells =  100
prepared by = Thomas A. Manz      
prepared date = May 2010            
net magnetization =    0
density in atomic units:
0.18924622E+04
0.55820435E+02
0.14715744E+02
0.92892332E+01
0.58767810E+01
0.36645129E+01
0.21404889E+01
0.11789870E+01
0.66046453E+00
0.37343228E+00
0.21720289E+00
0.13720417E+00
0.92441007E-01
0.67379557E-01
0.53838857E-01
0.45311157E-01
0.39013036E-01
0.34201987E-01
0.30112147E-01
0.26378518E-01
0.23079082E-01
0.20143252E-01
0.17420447E-01
0.14971893E-01
0.12833009E-01
0.10934056E-01
0.92717279E-02
0.78555383E-02
0.66157114E-02
0.55639339E-02
0.46778531E-02
0.39150179E-02
0.32771470E-02
0.27425487E-02
0.22918882E-02
0.19095191E-02
0.15882188E-02
0.13204361E-02
0.10999072E-02
0.91416179E-03
0.75933931E-03
0.63050113E-03
0.52269507E-03
0.43509790E-03
0.36180750E-03
0.29935484E-03
0.24812992E-03
0.20641588E-03
0.17123194E-03
0.14202985E-03
0.11780033E-03
0.97573982E-04
0.81032049E-04
0.67399720E-04
0.56021490E-04
0.46530902E-04
0.38594622E-04
0.32021006E-04
0.26584010E-04
0.22090482E-04
0.18345196E-04
0.15231760E-04
0.12657216E-04
0.10510954E-04
0.87231856E-05
0.72581161E-05
0.60376324E-05
0.50092103E-05
0.41559074E-05
0.34446139E-05
0.28612058E-05
0.23768062E-05
0.19725528E-05
0.16389122E-05
0.13593217E-05
0.11271301E-05
0.93493480E-06
0.77498436E-06
0.64282438E-06
0.53396019E-06
0.44271985E-06
0.36670289E-06
0.30354065E-06
0.25127096E-06
0.20835232E-06
0.17294147E-06
0.14339818E-06
0.11890454E-06
0.98571242E-07
0.81538545E-07
0.67579940E-07
0.55950650E-07
0.46243329E-07
0.38292427E-07
0.31670670E-07
0.26177764E-07
0.21666290E-07
0.17900749E-07
0.14768326E-07
0.12192143E-07
