atomic number =   85
effective nuclear charge =   85
electron count =   68
net charge =   17
basis set = approximate basis set limit (UGBS)      
exchange correlation functional = PW91PW91            
cutoff radius (picometer) =  300
number of shells =   50
prepared by = Thomas A. Manz      
prepared date = July 2010           
net magnetization =    0
density in atomic units:
0.94368828E+05
0.28907751E+03
0.89606293E+02
0.44856709E+02
0.17118481E+02
0.64387550E+01
0.31636882E+01
0.18152483E+01
0.10206743E+01
0.55868179E+00
0.28959128E+00
0.14341100E+00
0.72770499E-01
0.35721142E-01
0.17419768E-01
0.83860261E-02
0.39694235E-02
0.19528680E-02
0.94795902E-03
0.46008357E-03
0.22379951E-03
0.10824482E-03
0.52322557E-04
0.25080279E-04
0.11844748E-04
0.55278392E-05
0.25642485E-05
0.12069133E-05
0.55910147E-06
0.25669135E-06
0.11905945E-06
0.55054066E-07
0.25805038E-07
0.12219815E-07
0.59724248E-08
0.31692640E-08
0.19189927E-08
0.13793253E-08
0.11619875E-08
0.10816422E-08
0.10425573E-08
0.99934649E-09
0.93499530E-09
0.84649660E-09
0.73774470E-09
0.61813427E-09
0.49576809E-09
0.37963449E-09
0.27653238E-09
0.19162398E-09
