atomic number =   78
effective nuclear charge =   78
electron count =   68
net charge =   10
basis set = approximate basis set limit (UGBS)      
exchange correlation functional = PW91PW91            
cutoff radius (picometer) =  300
number of shells =   50
prepared by = Thomas A. Manz      
prepared date = July 2010           
net magnetization =    0
density in atomic units:
0.72171906E+05
0.27121640E+03
0.71192566E+02
0.41403690E+02
0.19891554E+02
0.80146723E+01
0.37022538E+01
0.21152196E+01
0.13020911E+01
0.82514256E+00
0.50981241E+00
0.30583674E+00
0.18662268E+00
0.11113455E+00
0.65969735E-01
0.38720611E-01
0.22448301E-01
0.13335764E-01
0.78189811E-02
0.45742709E-02
0.26809687E-02
0.15698310E-02
0.92446274E-03
0.54528622E-03
0.32114176E-03
0.18918577E-03
0.11189274E-03
0.67182802E-04
0.39994124E-04
0.23707895E-04
0.14129163E-04
0.83768027E-05
0.49829068E-05
0.29504790E-05
0.17445537E-05
0.10411178E-05
0.62572462E-06
0.37713383E-06
0.22735351E-06
0.13927730E-06
0.86812989E-07
0.54375796E-07
0.34670574E-07
0.22465230E-07
0.14647098E-07
0.96613766E-08
0.63660446E-08
0.41940957E-08
0.27464722E-08
0.17821626E-08
