atomic number =   84
effective nuclear charge =   84
electron count =   10
net charge =   74
basis set = approximate basis set limit (UGBS)      
exchange correlation functional = PW91PW91            
cutoff radius (picometer) =  300
number of shells =   50
prepared by = Thomas A. Manz      
prepared date = July 2010           
net magnetization =    0
density in atomic units:
0.86893039E+05
0.54750981E+01
0.52741892E-02
0.22817308E-04
0.55266064E-05
0.14156600E-05
0.10564135E-05
0.54530926E-06
0.43370012E-07
0.18957587E-06
0.12566160E-06
0.15341795E-07
0.92107539E-08
0.30446383E-07
0.29423147E-07
0.13829235E-07
0.24362727E-08
0.41841733E-09
0.28847473E-08
0.50738587E-08
0.51340172E-08
0.36363619E-08
0.18409210E-08
0.57248811E-09
0.54537895E-10
0.11018417E-09
0.41404613E-09
0.69838818E-09
0.84227636E-09
0.81809781E-09
0.67244321E-09
0.47273002E-09
0.28124625E-09
0.13219037E-09
0.41031057E-10
0.46016468E-11
0.75898723E-11
0.33750211E-10
0.68532749E-10
0.99743457E-10
0.12092906E-09
0.13007619E-09
0.12747814E-09
0.11565893E-09
0.97751807E-10
0.77233962E-10
0.56636352E-10
0.38117613E-10
0.23014543E-10
0.11948093E-10
