atomic number =   65
effective nuclear charge =   65
electron count =   54
net charge =   11
basis set = approximate basis set limit (UGBS)      
exchange correlation functional = PW91PW91            
cutoff radius (picometer) =  300
number of shells =   50
prepared by = Thomas A. Manz      
prepared date = July 2010           
net magnetization =    0
density in atomic units:
0.40253117E+05
0.22128230E+03
0.52083992E+02
0.18747040E+02
0.12802431E+02
0.69780650E+01
0.33016579E+01
0.16632407E+01
0.94852382E+00
0.64196980E+00
0.47638288E+00
0.36427563E+00
0.28286952E+00
0.21508782E+00
0.16145433E+00
0.11882489E+00
0.85955612E-01
0.62487815E-01
0.44743631E-01
0.31833034E-01
0.22591582E-01
0.15986947E-01
0.11335758E-01
0.80313934E-02
0.56750518E-02
0.40027862E-02
0.28265647E-02
0.20131601E-02
0.14244678E-02
0.10054195E-02
0.71277167E-03
0.50435582E-03
0.35839475E-03
0.25430403E-03
0.18055474E-03
0.12899328E-03
0.92494563E-04
0.66260043E-04
0.47263566E-04
0.33862834E-04
0.24353763E-04
0.17411989E-04
0.12484274E-04
0.89643736E-05
0.64161350E-05
0.45998509E-05
0.32876223E-05
0.23458010E-05
0.16718483E-05
0.11935098E-05
