atomic number =   81
effective nuclear charge =   81
electron count =   80
net charge =    1
basis set = approximate basis set limit (UGBS)      
exchange correlation functional = PW91PW91            
cutoff radius (picometer) =  400
number of shells =   75
prepared by = Thomas A. Manz      
prepared date = July 2010           
net magnetization =    0
density in atomic units:
0.81277227E+05
0.41123535E+03
0.10154469E+03
0.60209293E+02
0.31470005E+02
0.13250753E+02
0.63200288E+01
0.37995439E+01
0.26359019E+01
0.19158673E+01
0.13977422E+01
0.10092268E+01
0.72252870E+00
0.51991099E+00
0.37607637E+00
0.27384785E+00
0.20087686E+00
0.14932452E+00
0.11299594E+00
0.86764246E-01
0.67399800E-01
0.52765794E-01
0.41501950E-01
0.32901905E-01
0.26248477E-01
0.21035269E-01
0.16935676E-01
0.13708608E-01
0.11072682E-01
0.89706872E-02
0.73333094E-02
0.60018180E-02
0.48942822E-02
0.39910837E-02
0.32767695E-02
0.26925439E-02
0.22074054E-02
0.18155195E-02
0.14989815E-02
0.12348663E-02
0.10154864E-02
0.83872344E-03
0.69340505E-03
0.57304982E-03
0.47441651E-03
0.39290052E-03
0.32581575E-03
0.27016722E-03
0.22376118E-03
0.18554826E-03
0.15402210E-03
0.12804419E-03
0.10633696E-03
0.88358363E-04
0.73632145E-04
0.61268882E-04
0.50918890E-04
0.42370357E-04
0.35305700E-04
0.29401470E-04
0.24469800E-04
0.20399919E-04
0.17004311E-04
0.14160765E-04
0.11787666E-04
0.98132487E-05
0.81801700E-05
0.68089362E-05
0.56612594E-05
0.47161961E-05
0.39350430E-05
0.32715557E-05
0.27178764E-05
0.22591553E-05
0.18800947E-05
