atomic number =   64
effective nuclear charge =   64
electron count =   54
net charge =   10
basis set = approximate basis set limit (UGBS)      
exchange correlation functional = PW91PW91            
cutoff radius (picometer) =  400
number of shells =   75
prepared by = Thomas A. Manz      
prepared date = July 2010           
net magnetization =    0
density in atomic units:
0.38285645E+05
0.28557117E+03
0.88487465E+02
0.24915649E+02
0.15325299E+02
0.10487453E+02
0.61140985E+01
0.32027762E+01
0.16827629E+01
0.99794322E+00
0.68379718E+00
0.51684690E+00
0.40807521E+00
0.32685298E+00
0.26026523E+00
0.20439628E+00
0.15786846E+00
0.12040796E+00
0.91290727E-01
0.68809584E-01
0.51599476E-01
0.38450941E-01
0.28444340E-01
0.21025300E-01
0.15530196E-01
0.11455048E-01
0.84479330E-02
0.62435260E-02
0.45782756E-02
0.33573390E-02
0.24865777E-02
0.18398500E-02
0.13509811E-02
0.98998589E-03
0.73180738E-03
0.54126175E-03
0.39850935E-03
0.29470163E-03
0.21916239E-03
0.16240832E-03
0.11999176E-03
0.89233356E-04
0.66453926E-04
0.49437840E-04
0.36859641E-04
0.27484861E-04
0.20513566E-04
0.15297044E-04
0.11371565E-04
0.84587418E-05
0.62940026E-05
0.46871105E-05
0.34807499E-05
0.25833119E-05
0.19238871E-05
0.14280212E-05
0.10565584E-05
0.78273467E-06
0.58090228E-06
0.43039225E-06
0.31851732E-06
0.23620146E-06
0.17519575E-06
0.12971424E-06
0.95994295E-07
0.71049101E-07
0.52702326E-07
0.39004039E-07
0.28808376E-07
0.21323766E-07
0.15818832E-07
0.11665305E-07
0.85756131E-08
0.63052243E-08
0.46392814E-08
