atomic number =   60
effective nuclear charge =   60
electron count =    2
net charge =   58
basis set = approximate basis set limit (UGBS)      
exchange correlation functional = PW91PW91            
cutoff radius (picometer) =  300
number of shells =   50
prepared by = Thomas A. Manz      
prepared date = July 2010           
net magnetization =    0
density in atomic units:
0.26245490E+05
0.97301998E-03
0.12104501E-04
0.41332519E-05
0.95826374E-06
0.24988333E-06
0.18412561E-06
0.95727295E-07
0.73292030E-08
0.33017201E-07
0.21932776E-07
0.26434375E-08
0.15753978E-08
0.52942668E-08
0.51204863E-08
0.24015303E-08
0.41706094E-09
0.68068114E-10
0.49985277E-09
0.88185081E-09
0.89206781E-09
0.63098166E-09
0.31851841E-09
0.98139656E-10
0.85308878E-11
0.18662882E-10
0.71799566E-10
0.12135121E-09
0.14634279E-09
0.14203604E-09
0.11663602E-09
0.81863877E-10
0.48577406E-10
0.22713179E-10
0.69316410E-11
0.66752701E-12
0.12439872E-11
0.58328529E-11
0.11901815E-10
0.17332920E-10
0.21017245E-10
0.22605737E-10
0.22135214E-10
0.20065411E-10
0.16939835E-10
0.13371079E-10
0.97906492E-11
0.65785957E-11
0.39587470E-11
0.20419662E-11
