atomic number =   60
effective nuclear charge =   60
electron count =   54
net charge =    6
basis set = approximate basis set limit (UGBS)      
exchange correlation functional = PW91PW91            
cutoff radius (picometer) =  300
number of shells =   50
prepared by = Thomas A. Manz      
prepared date = July 2010           
net magnetization =    0
density in atomic units:
0.31066682E+05
0.19916254E+03
0.57665176E+02
0.16698709E+02
0.10973176E+02
0.71901608E+01
0.39633300E+01
0.21103182E+01
0.11497713E+01
0.70870620E+00
0.49184942E+00
0.37073863E+00
0.29411966E+00
0.23243099E+00
0.18234847E+00
0.14045846E+00
0.10629663E+00
0.80498509E-01
0.59963193E-01
0.44280708E-01
0.32539614E-01
0.23788430E-01
0.17382035E-01
0.12665834E-01
0.91906302E-02
0.66476753E-02
0.48082238E-02
0.35023929E-02
0.25343022E-02
0.18289690E-02
0.13252458E-02
0.95868483E-03
0.69633871E-03
0.50517335E-03
0.36677881E-03
0.26789482E-03
0.19635203E-03
0.14380802E-03
0.10490455E-03
0.76849996E-04
0.56501802E-04
0.41308151E-04
0.30284598E-04
0.22236543E-04
0.16275446E-04
0.11931744E-04
0.87215549E-05
0.63656330E-05
0.46387036E-05
0.33846359E-05
