atomic number =   84
effective nuclear charge =   84
electron count =   28
net charge =   56
basis set = approximate basis set limit (UGBS)      
exchange correlation functional = PW91PW91            
cutoff radius (picometer) =  300
number of shells =   50
prepared by = Thomas A. Manz      
prepared date = July 2010           
net magnetization =    0
density in atomic units:
0.90023688E+05
0.23006606E+03
0.18638067E+02
0.80227208E+00
0.30663546E-01
0.93052274E-03
0.23272631E-04
0.10959762E-05
0.56560314E-07
0.22289611E-06
0.16433098E-06
0.29441509E-07
0.12253539E-07
0.35032002E-07
0.36053500E-07
0.18987837E-07
0.48702447E-08
0.12264150E-08
0.33498229E-08
0.58352789E-08
0.61583907E-08
0.46368900E-08
0.25976352E-08
0.10279438E-08
0.27447561E-09
0.20704245E-09
0.48420384E-09
0.79412182E-09
0.97656927E-09
0.97782882E-09
0.83470925E-09
0.61718647E-09
0.39587722E-09
0.21348764E-09
0.92624068E-10
0.34385595E-10
0.24087204E-10
0.44406805E-10
0.78902385E-10
0.11310564E-09
0.13845869E-09
0.15151647E-09
0.15149189E-09
0.14056138E-09
0.12193657E-09
0.99406469E-10
0.75864433E-10
0.53955281E-10
0.35402400E-10
0.21156479E-10
