atomic number =  106
effective nuclear charge =  106
electron count =   80
net charge =   26
basis set = approximate basis set limit (UGBS)      
exchange correlation functional = PW91PW91            
cutoff radius (picometer) =  500
number of shells =  100
prepared by = Thomas A. Manz      
prepared date = July 2010           
net magnetization =    0
density in atomic units:
0.12479714E+07
0.78481702E+03
0.21943260E+03
0.68897026E+02
0.23264652E+02
0.14329515E+02
0.89264412E+01
0.48671904E+01
0.25583305E+01
0.13384491E+01
0.71715391E+00
0.41226488E+00
0.24214640E+00
0.14454441E+00
0.90761758E-01
0.57913523E-01
0.36320999E-01
0.23004351E-01
0.14557378E-01
0.90546915E-02
0.56696446E-02
0.35789567E-02
0.22252924E-02
0.13766591E-02
0.85651939E-03
0.53018745E-03
0.32701230E-03
0.20335960E-03
0.12544764E-03
0.77622608E-04
0.48358441E-04
0.29885336E-04
0.18559149E-04
0.11554781E-04
0.71811428E-05
0.44381304E-05
0.27295680E-05
0.16790268E-05
0.10379669E-05
0.63898648E-06
0.39286323E-06
0.24213671E-06
0.14916749E-06
0.93424298E-07
0.58927242E-07
0.37241723E-07
0.24067260E-07
0.16055422E-07
0.10944031E-07
0.76765589E-08
0.55388263E-08
0.40820449E-08
0.30677001E-08
0.23284035E-08
0.17612981E-08
0.13173425E-08
0.96480290E-09
0.68826106E-09
0.47485116E-09
0.31464298E-09
0.19856951E-09
0.11990296E-09
0.72310151E-10
0.49051659E-10
0.44407998E-10
0.52883666E-10
0.69894028E-10
0.91830057E-10
0.11523894E-09
0.13779496E-09
0.15737055E-09
0.17290544E-09
0.18427353E-09
0.19057475E-09
0.19226652E-09
0.18930006E-09
0.18315749E-09
0.17349845E-09
0.16164582E-09
0.14815105E-09
0.13336596E-09
0.11803401E-09
0.10268825E-09
0.87857548E-10
0.73920432E-10
0.61161187E-10
0.49553740E-10
0.39330542E-10
0.30501678E-10
0.23013281E-10
0.16972469E-10
0.12222686E-10
0.86402795E-11
0.61690874E-11
0.46526997E-11
0.39572759E-11
0.39479227E-11
0.44985396E-11
0.54907767E-11
0.68056290E-11
