atomic number =   81
effective nuclear charge =   81
electron count =   80
net charge =    1
basis set = approximate basis set limit (UGBS)      
exchange correlation functional = PW91PW91            
cutoff radius (picometer) =  500
number of shells =  100
prepared by = Thomas A. Manz      
prepared date = July 2010           
net magnetization =    0
density in atomic units:
0.56311894E+06
0.58822711E+03
0.12226354E+03
0.63832043E+02
0.34540970E+02
0.16730068E+02
0.81109667E+01
0.45617900E+01
0.31319504E+01
0.23091738E+01
0.17175837E+01
0.12852374E+01
0.94253212E+00
0.68220186E+00
0.50341898E+00
0.37412670E+00
0.27639803E+00
0.20767528E+00
0.15788904E+00
0.12051927E+00
0.93584515E-01
0.73793188E-01
0.58322474E-01
0.46379853E-01
0.37248742E-01
0.30017693E-01
0.24277523E-01
0.19784404E-01
0.16124265E-01
0.13200672E-01
0.10862364E-01
0.89305639E-02
0.73721595E-02
0.61032791E-02
0.50581442E-02
0.41885474E-02
0.34695927E-02
0.28779679E-02
0.23958723E-02
0.19930187E-02
0.16590966E-02
0.13824912E-02
0.11514401E-02
0.96382684E-03
0.80673950E-03
0.67257485E-03
0.56213391E-03
0.47181069E-03
0.39516677E-03
0.33112321E-03
0.27758259E-03
0.23250245E-03
0.19529705E-03
0.16434431E-03
0.13825299E-03
0.11625446E-03
0.97658805E-04
0.82072605E-04
0.69036818E-04
0.58132260E-04
0.48933533E-04
0.41185085E-04
0.34698161E-04
0.29220148E-04
0.24597441E-04
0.20758032E-04
0.17515093E-04
0.14744916E-04
0.12412963E-04
0.10442547E-04
0.88019633E-05
0.74200507E-05
0.62484905E-05
0.52679488E-05
0.44354633E-05
0.37316333E-05
0.31401839E-05
0.26413340E-05
0.22226939E-05
0.18722392E-05
0.15738655E-05
0.13215480E-05
0.11088019E-05
0.92983885E-06
0.78108809E-06
0.65605764E-06
0.55041971E-06
0.46175393E-06
0.38705687E-06
0.32352671E-06
0.27090252E-06
0.22641878E-06
0.18883813E-06
0.15771134E-06
0.13147304E-06
0.10945736E-06
0.91195886E-07
0.75806845E-07
0.62884517E-07
0.52159766E-07
