atomic number =   91
effective nuclear charge =   91
electron count =   80
net charge =   11
basis set = approximate basis set limit (UGBS)      
exchange correlation functional = PW91PW91            
cutoff radius (picometer) =  400
number of shells =   75
prepared by = Thomas A. Manz      
prepared date = July 2010           
net magnetization =    0
density in atomic units:
0.11614708E+06
0.43898502E+03
0.13416077E+03
0.70288284E+02
0.26466652E+02
0.11066958E+02
0.68359365E+01
0.46547251E+01
0.30200069E+01
0.18706738E+01
0.11415418E+01
0.69656175E+00
0.42975897E+00
0.27337283E+00
0.17800905E+00
0.11788592E+00
0.78819372E-01
0.53323872E-01
0.36586341E-01
0.25336759E-01
0.17624578E-01
0.12261406E-01
0.84903352E-02
0.58879722E-02
0.40822700E-02
0.28245472E-02
0.19521812E-02
0.13510879E-02
0.92514424E-03
0.63255616E-03
0.43738520E-03
0.30180637E-03
0.20617017E-03
0.14040849E-03
0.96627293E-04
0.66553745E-04
0.45586978E-04
0.31406016E-04
0.21796130E-04
0.15072105E-04
0.10388518E-04
0.72217667E-05
0.50325170E-05
0.35032031E-05
0.24458195E-05
0.17077955E-05
0.11932383E-05
0.83231038E-06
0.57734894E-06
0.40004576E-06
0.27645848E-06
0.19061730E-06
0.13033808E-06
0.88566999E-07
0.60060870E-07
0.40221668E-07
0.26551209E-07
0.17339543E-07
0.11186938E-07
0.70733286E-08
0.43663091E-08
0.26360742E-08
0.15431693E-08
0.86706414E-09
0.46676418E-09
0.24181879E-09
0.12693691E-09
0.75231987E-10
0.59452825E-10
0.61749730E-10
0.71131621E-10
0.81689856E-10
0.90134442E-10
0.94958826E-10
0.95959421E-10
