atomic number =  105
effective nuclear charge =  105
electron count =   62
net charge =   43
basis set = approximate basis set limit (UGBS)      
exchange correlation functional = PW91PW91            
cutoff radius (picometer) =  300
number of shells =   50
prepared by = Thomas A. Manz      
prepared date = July 2010           
net magnetization =    0
density in atomic units:
0.17501583E+06
0.34247311E+03
0.11829371E+03
0.29015848E+02
0.63446317E+01
0.14641216E+01
0.38486779E+00
0.11126336E+00
0.29585300E-01
0.75701717E-02
0.18246878E-02
0.42171331E-03
0.11278864E-03
0.31108048E-04
0.88734350E-05
0.24094318E-05
0.51326703E-06
0.73643754E-07
0.11788607E-07
0.28601022E-07
0.37417085E-07
0.29969435E-07
0.16832837E-07
0.65299486E-08
0.19631976E-08
0.21417177E-08
0.45094093E-08
0.68238357E-08
0.80085298E-08
0.77741040E-08
0.64823507E-08
0.46918771E-08
0.29457181E-08
0.15514632E-08
0.66175965E-09
0.26411581E-09
0.23203595E-09
0.42489506E-09
0.71280026E-09
0.98402642E-09
0.11756028E-08
0.12642625E-08
0.12473175E-08
0.11448288E-08
0.98366071E-09
0.79461226E-09
0.60085692E-09
0.42315476E-09
0.27446437E-09
0.16217172E-09
