atomic number =   84
effective nuclear charge =   84
electron count =   80
net charge =    4
basis set = approximate basis set limit (UGBS)      
exchange correlation functional = PW91PW91            
cutoff radius (picometer) =  400
number of shells =   75
prepared by = Thomas A. Manz      
prepared date = July 2010           
net magnetization =    0
density in atomic units:
0.91016477E+05
0.42308875E+03
0.10960639E+03
0.65223724E+02
0.30588705E+02
0.12239688E+02
0.62067475E+01
0.40508361E+01
0.28742268E+01
0.20361733E+01
0.14217765E+01
0.97791696E+00
0.66713643E+00
0.45903194E+00
0.31844315E+00
0.22292577E+00
0.15747827E+00
0.11295681E+00
0.82637295E-01
0.61429534E-01
0.46216331E-01
0.35031348E-01
0.26648296E-01
0.20414969E-01
0.15721921E-01
0.12146626E-01
0.94158463E-02
0.73321294E-02
0.56848228E-02
0.44158292E-02
0.34618576E-02
0.27143196E-02
0.21162503E-02
0.16476965E-02
0.12919653E-02
0.10129575E-02
0.79095626E-03
0.61935547E-03
0.48680475E-03
0.38117063E-03
0.29747363E-03
0.23320501E-03
0.18290558E-03
0.14326278E-03
0.11238058E-03
0.88155444E-04
0.69224807E-04
0.54337423E-04
0.42572112E-04
0.33401477E-04
0.26236004E-04
0.20647996E-04
0.16230561E-04
0.12767321E-04
0.10083621E-04
0.79511574E-05
0.62601130E-05
0.49383975E-05
0.39028942E-05
0.30837264E-05
0.24353842E-05
0.19273868E-05
0.15260013E-05
0.12069244E-05
0.95437429E-06
0.75467960E-06
0.59794115E-06
0.47294270E-06
0.37358558E-06
0.29567042E-06
0.23450623E-06
0.18521500E-06
0.14603647E-06
0.11522636E-06
0.91046957E-07
