atomic number =   90
effective nuclear charge =   90
electron count =   30
net charge =   60
basis set = approximate basis set limit (UGBS)      
exchange correlation functional = PW91PW91            
cutoff radius (picometer) =  300
number of shells =   50
prepared by = Thomas A. Manz      
prepared date = July 2010           
net magnetization =    0
density in atomic units:
0.11191400E+06
0.22462868E+03
0.18585007E+02
0.33806782E+01
0.68383479E+00
0.97124562E-01
0.11646703E-01
0.14878549E-02
0.17753190E-03
0.24453242E-04
0.37299028E-05
0.40631855E-06
0.29921793E-07
0.62678765E-07
0.71227213E-07
0.37139603E-07
0.87647889E-08
0.25096707E-08
0.77970377E-08
0.13052878E-07
0.13337721E-07
0.97299369E-08
0.52304996E-08
0.19233852E-08
0.45226989E-09
0.44829693E-09
0.11296678E-08
0.18199132E-08
0.21918953E-08
0.21533157E-08
0.18034881E-08
0.13040998E-08
0.81253576E-09
0.41850118E-09
0.16689319E-09
0.54786866E-10
0.46385500E-10
0.10176273E-09
0.18404687E-09
0.26153213E-09
0.31648714E-09
0.34232028E-09
0.33849779E-09
0.31059330E-09
0.26625671E-09
0.21427728E-09
0.16102884E-09
0.11226792E-09
0.71618496E-10
0.41055340E-10
