atomic number =   80
effective nuclear charge =   80
electron count =   12
net charge =   68
basis set = approximate basis set limit (UGBS)      
exchange correlation functional = PW91PW91            
cutoff radius (picometer) =  300
number of shells =   50
prepared by = Thomas A. Manz      
prepared date = July 2010           
net magnetization =    0
density in atomic units:
0.76976289E+05
0.34772552E+02
0.32422812E+01
0.14494634E+00
0.51341620E-02
0.11493755E-03
0.41972517E-05
0.75523332E-06
0.45776993E-07
0.18019379E-06
0.12201627E-06
0.15064638E-07
0.90684882E-08
0.29879885E-07
0.28870224E-07
0.13557973E-07
0.23841720E-08
0.42712506E-09
0.28695659E-08
0.50242828E-08
0.50744160E-08
0.35892815E-08
0.18144691E-08
0.56308480E-09
0.54297372E-10
0.11194672E-09
0.41386811E-09
0.69529948E-09
0.83700463E-09
0.81206541E-09
0.66710787E-09
0.46857007E-09
0.27857469E-09
0.13083078E-09
0.40597026E-10
0.46719230E-11
0.78190839E-11
0.33908827E-10
0.68495168E-10
0.99472111E-10
0.12049214E-09
0.12955852E-09
0.12691644E-09
0.11509290E-09
0.97212842E-10
0.76786764E-10
0.56286701E-10
0.37899756E-10
0.22877507E-10
0.11876939E-10
