atomic number =  106
effective nuclear charge =  106
electron count =   80
net charge =   26
basis set = approximate basis set limit (UGBS)      
exchange correlation functional = PW91PW91            
cutoff radius (picometer) =  400
number of shells =   75
prepared by = Thomas A. Manz      
prepared date = July 2010           
net magnetization =    0
density in atomic units:
0.17972220E+06
0.46421957E+03
0.17875058E+03
0.57602821E+02
0.21633408E+02
0.12424090E+02
0.71527257E+01
0.36671786E+01
0.17845685E+01
0.89904201E+00
0.48152339E+00
0.27141389E+00
0.15815195E+00
0.95395841E-01
0.58383748E-01
0.35810180E-01
0.21799807E-01
0.13232208E-01
0.80559514E-02
0.49126120E-02
0.29879068E-02
0.18096289E-02
0.10849967E-02
0.65164786E-03
0.39139547E-03
0.23486753E-03
0.14104790E-03
0.85082946E-04
0.50734008E-04
0.30233805E-04
0.18327357E-04
0.11085249E-04
0.66128214E-05
0.39235883E-05
0.23542191E-05
0.14121069E-05
0.83765713E-06
0.49940547E-06
0.30033397E-06
0.17970473E-06
0.10725435E-06
0.65171918E-07
0.40194255E-07
0.25227264E-07
0.16264044E-07
0.10820593E-07
0.74445574E-08
0.52822187E-08
0.38313823E-08
0.28269311E-08
0.20986155E-08
0.15518157E-08
0.11266968E-08
0.79753915E-09
0.54781557E-09
0.35877767E-09
0.22193219E-09
0.13067421E-09
0.76020322E-10
0.49623181E-10
0.44568217E-10
0.54373905E-10
0.73458330E-10
0.97303048E-10
0.12217932E-09
0.14528073E-09
0.16458582E-09
0.17917953E-09
0.18848183E-09
0.19213899E-09
0.19070051E-09
0.18485700E-09
0.17520073E-09
0.16285863E-09
0.14846555E-09
