atomic number =   22
effective nuclear charge =   22
electron count =   12
net charge =   10
basis set = approximate basis set limit (UGBS)      
exchange correlation functional = PW91PW91            
cutoff radius (picometer) =  400
number of shells =   75
prepared by = Thomas A. Manz      
prepared date = July 2010           
net magnetization =    0
density in atomic units:
0.12709696E+04
0.67643707E+02
0.30706581E+02
0.11835280E+02
0.39342859E+01
0.13212867E+01
0.62145162E+00
0.39988196E+00
0.28891736E+00
0.21006162E+00
0.14938937E+00
0.10299775E+00
0.69003329E-01
0.45609627E-01
0.29721936E-01
0.19106144E-01
0.12103049E-01
0.76194271E-02
0.48063691E-02
0.30367193E-02
0.19159589E-02
0.12052921E-02
0.75227488E-03
0.47079020E-03
0.29496508E-03
0.18478103E-03
0.11590408E-03
0.73017065E-04
0.45517398E-04
0.28367913E-04
0.17958817E-04
0.11349655E-04
0.70868155E-05
0.44061994E-05
0.27730011E-05
0.17461973E-05
0.10909886E-05
0.68620483E-06
0.43568741E-06
0.27561759E-06
0.17395712E-06
0.11125875E-06
0.71629579E-07
0.46263477E-07
0.30127186E-07
0.19723297E-07
0.12982348E-07
0.85688443E-08
0.56399889E-08
0.37174617E-08
0.24452611E-08
0.16029341E-08
0.10374348E-08
0.66244910E-09
0.41771656E-09
0.25548844E-09
0.15011217E-09
0.84146516E-10
0.44072350E-10
0.20626566E-10
0.79402040E-11
0.20920173E-11
0.23204564E-12
0.58453221E-12
0.20097188E-11
0.37683680E-11
0.54407308E-11
0.67998389E-11
0.77524905E-11
0.82722666E-11
0.84070580E-11
0.82163634E-11
0.77645581E-11
0.71271413E-11
0.63774346E-11
