atomic number =   60
effective nuclear charge =   60
electron count =   18
net charge =   42
basis set = approximate basis set limit (UGBS)      
exchange correlation functional = PW91PW91            
cutoff radius (picometer) =  300
number of shells =   50
prepared by = Thomas A. Manz      
prepared date = July 2010           
net magnetization =    0
density in atomic units:
0.30736963E+05
0.85560814E+02
0.28845478E+02
0.56322923E+01
0.79650599E+00
0.81176773E-01
0.77246279E-02
0.85239130E-03
0.79433259E-04
0.70992810E-05
0.74262152E-06
0.98493572E-07
0.23140966E-07
0.14207620E-07
0.10033125E-07
0.43382000E-08
0.79727980E-09
0.32250688E-09
0.11744798E-08
0.18383565E-08
0.17806319E-08
0.12299671E-08
0.61104338E-09
0.18808460E-09
0.24212915E-10
0.52223410E-10
0.15943218E-09
0.25563809E-09
0.30150171E-09
0.28904870E-09
0.23557575E-09
0.16448320E-09
0.97311111E-10
0.45551007E-10
0.14271595E-10
0.21277630E-11
0.36417119E-11
0.13093089E-10
0.25386941E-10
0.36303623E-10
0.43615341E-10
0.46675625E-10
0.45554678E-10
0.41217356E-10
0.34764993E-10
0.27433229E-10
0.20097198E-10
0.13526187E-10
0.81724991E-11
0.42597336E-11
