atomic number =   82
effective nuclear charge =   82
electron count =   48
net charge =   34
basis set = approximate basis set limit (UGBS)      
exchange correlation functional = PW91PW91            
cutoff radius (picometer) =  500
number of shells =  100
prepared by = Thomas A. Manz      
prepared date = July 2010           
net magnetization =    0
density in atomic units:
0.58509269E+06
0.57043878E+03
0.89803032E+02
0.40228180E+02
0.21646603E+02
0.97929850E+01
0.39924061E+01
0.16349908E+01
0.78482080E+00
0.41902602E+00
0.23419063E+00
0.13611737E+00
0.77008769E-01
0.42093091E-01
0.23443213E-01
0.12983688E-01
0.69102901E-02
0.36969935E-02
0.19758584E-02
0.10331793E-02
0.54697320E-03
0.29408987E-03
0.15527637E-03
0.81473401E-04
0.43021959E-04
0.22500040E-04
0.11652300E-04
0.60740849E-05
0.31162313E-05
0.15983907E-05
0.82653429E-06
0.42279044E-06
0.21873011E-06
0.11450499E-06
0.60573370E-07
0.32370568E-07
0.17577241E-07
0.97577599E-08
0.55672174E-08
0.32185647E-08
0.18885444E-08
0.11366434E-08
0.71378170E-09
0.49281573E-09
0.38406778E-09
0.33881548E-09
0.32755873E-09
0.32893530E-09
0.33059716E-09
0.32585273E-09
0.31196945E-09
0.28897026E-09
0.25897820E-09
0.22447035E-09
0.18781020E-09
0.15149412E-09
0.11748862E-09
0.87623200E-10
0.62871368E-10
0.43588175E-10
0.29558269E-10
0.20403601E-10
0.15524118E-10
0.14094412E-10
0.15304407E-10
0.18297381E-10
0.22369650E-10
0.26952995E-10
0.31479559E-10
0.35557939E-10
0.38871951E-10
0.41287876E-10
0.42756843E-10
0.43233191E-10
0.42814221E-10
0.41582349E-10
0.39645710E-10
0.37158915E-10
0.34258960E-10
0.31115131E-10
0.27803624E-10
0.24445564E-10
0.21139668E-10
0.17990951E-10
0.15086541E-10
0.12449257E-10
0.10083262E-10
0.80235601E-11
0.62643593E-11
0.47901075E-11
0.36230680E-11
0.27156573E-11
0.20489554E-11
0.16074691E-11
0.13535807E-11
0.12640097E-11
0.13051717E-11
0.14547012E-11
0.16877062E-11
0.19791807E-11
