atomic number =   78
effective nuclear charge =   78
electron count =   36
net charge =   42
basis set = approximate basis set limit (UGBS)      
exchange correlation functional = PW91PW91            
cutoff radius (picometer) =  400
number of shells =   75
prepared by = Thomas A. Manz      
prepared date = July 2010           
net magnetization =    0
density in atomic units:
0.72005367E+05
0.36051694E+03
0.63786469E+02
0.19188562E+02
0.96978540E+01
0.37598519E+01
0.12427731E+01
0.36697873E+00
0.97416714E-01
0.25938924E-01
0.69629638E-02
0.18672151E-02
0.47663500E-03
0.12118316E-03
0.30694235E-04
0.79968204E-05
0.21667956E-05
0.63172223E-06
0.19272274E-06
0.61314168E-07
0.22116195E-07
0.11778080E-07
0.86351184E-08
0.64222165E-08
0.40758237E-08
0.20202133E-08
0.69468581E-09
0.16797223E-09
0.23430097E-09
0.59110317E-09
0.95994990E-09
0.11986175E-08
0.12527251E-08
0.11357305E-08
0.91639962E-09
0.65759553E-09
0.41092077E-09
0.21809315E-09
0.91789833E-10
0.26651932E-10
0.13105083E-10
0.34758738E-10
0.74549068E-10
0.11873073E-09
0.15677119E-09
0.18303828E-09
0.19531765E-09
0.19381105E-09
0.18082044E-09
0.15950695E-09
0.13350770E-09
0.10601902E-09
0.79291476E-10
0.55494966E-10
0.36008793E-10
0.20891075E-10
0.10299452E-10
0.40208405E-11
0.13674616E-11
0.15527409E-11
0.38055856E-11
0.73413966E-11
0.11524341E-10
0.15841070E-10
0.19835664E-10
0.23191150E-10
0.25725455E-10
0.27405425E-10
0.28184746E-10
0.28128900E-10
0.27374320E-10
0.25973798E-10
0.24098199E-10
0.21877345E-10
0.19487289E-10
