atomic number =   78
effective nuclear charge =   78
electron count =   48
net charge =   30
basis set = approximate basis set limit (UGBS)      
exchange correlation functional = PW91PW91            
cutoff radius (picometer) =  500
number of shells =  100
prepared by = Thomas A. Manz      
prepared date = July 2010           
net magnetization =    0
density in atomic units:
0.49981584E+06
0.53772968E+03
0.94610130E+02
0.35754700E+02
0.21758608E+02
0.11116431E+02
0.49130831E+01
0.20600491E+01
0.97148263E+00
0.51424193E+00
0.29487503E+00
0.18084130E+00
0.11014357E+00
0.65734684E-01
0.40026132E-01
0.24274651E-01
0.14241912E-01
0.83877509E-02
0.49235616E-02
0.28305326E-02
0.16404254E-02
0.96078031E-03
0.55320776E-03
0.31679717E-03
0.18268509E-03
0.10479035E-03
0.59888160E-04
0.34601777E-04
0.19845678E-04
0.11452250E-04
0.66841553E-05
0.38802104E-05
0.22737001E-05
0.13409236E-05
0.79150863E-06
0.46499042E-06
0.27210967E-06
0.15857022E-06
0.92569998E-07
0.53347378E-07
0.30334558E-07
0.17034420E-07
0.93713259E-08
0.51408882E-08
0.27805938E-08
0.14767937E-08
0.80865198E-09
0.48264870E-09
0.32439393E-09
0.25139216E-09
0.21614455E-09
0.19424751E-09
0.17521512E-09
0.15503897E-09
0.13307327E-09
0.11026836E-09
0.87963713E-10
0.67688320E-10
0.50391670E-10
0.36577689E-10
0.26286889E-10
0.19387929E-10
0.15529709E-10
0.14171512E-10
0.14763810E-10
0.16690076E-10
0.19456183E-10
0.22637853E-10
0.25809703E-10
0.28682206E-10
0.30998711E-10
0.32680837E-10
0.33690294E-10
0.33940118E-10
0.33602471E-10
0.32603031E-10
0.31103828E-10
0.29171995E-10
0.26950109E-10
0.24534489E-10
0.21986222E-10
0.19403085E-10
0.16868146E-10
0.14436448E-10
0.12187107E-10
0.10136750E-10
0.82944025E-11
0.66834554E-11
0.52986639E-11
0.41304022E-11
0.31955426E-11
0.24614115E-11
0.19113697E-11
0.15356741E-11
0.13064742E-11
0.12044459E-11
0.12066836E-11
0.12929579E-11
0.14483052E-11
0.16517596E-11
