atomic number =  106
effective nuclear charge =  106
electron count =    2
net charge =  104
basis set = approximate basis set limit (UGBS)      
exchange correlation functional = PW91PW91            
cutoff radius (picometer) =  400
number of shells =   75
prepared by = Thomas A. Manz      
prepared date = July 2010           
net magnetization =    0
density in atomic units:
0.14548797E+06
0.25800096E-02
0.12703417E-03
0.40018378E-04
0.95166297E-05
0.78166868E-05
0.61674695E-06
0.14177306E-05
0.65930675E-06
0.45300798E-07
0.22729911E-06
0.21259474E-06
0.61868654E-07
0.35058749E-08
0.22746935E-07
0.41954042E-07
0.35038536E-07
0.16476147E-07
0.35570358E-08
0.29361960E-09
0.25820710E-08
0.56533103E-08
0.68808701E-08
0.59875340E-08
0.40090677E-08
0.20169437E-08
0.65804995E-09
0.73712265E-10
0.85983151E-10
0.40729781E-09
0.76370421E-09
0.10098448E-08
0.10872340E-08
0.10027228E-08
0.81724927E-09
0.58972199E-09
0.36871650E-09
0.19355724E-09
0.77410349E-10
0.16189180E-10
0.18246763E-11
0.19827631E-10
0.54829277E-10
0.94356127E-10
0.12887419E-09
0.15318223E-09
0.16509850E-09
0.16484610E-09
0.15439719E-09
0.13645898E-09
0.11425352E-09
0.90636734E-10
0.67576847E-10
0.47020367E-10
0.30175133E-10
0.17108103E-10
0.79566805E-11
0.25454686E-11
0.27466736E-12
0.46078007E-12
0.24341074E-11
0.55151326E-11
0.91523915E-11
0.12892191E-10
0.16350626E-10
0.19273520E-10
0.21478878E-10
0.22939260E-10
0.23620854E-10
0.23596037E-10
0.22955707E-10
0.21773213E-10
0.20178593E-10
0.18299719E-10
0.16268133E-10
