atomic number =   98
effective nuclear charge =   98
electron count =    4
net charge =   94
basis set = approximate basis set limit (UGBS)      
exchange correlation functional = PW91PW91            
cutoff radius (picometer) =  300
number of shells =   50
prepared by = Thomas A. Manz      
prepared date = July 2010           
net magnetization =    0
density in atomic units:
0.13685003E+06
0.40358451E+00
0.28147298E-03
0.42113796E-04
0.96827916E-05
0.25765989E-05
0.18579467E-05
0.97565623E-06
0.74045140E-07
0.33365038E-06
0.22246864E-06
0.26952728E-07
0.15864678E-07
0.53518885E-07
0.51836199E-07
0.24338314E-07
0.42351624E-08
0.68657036E-09
0.50512456E-08
0.89202548E-08
0.90277226E-08
0.63877348E-08
0.32253600E-08
0.99436281E-09
0.86595682E-10
0.18858014E-09
0.72616896E-09
0.12277215E-08
0.14807551E-08
0.14373651E-08
0.11805324E-08
0.82853840E-09
0.49180160E-09
0.22995776E-09
0.70196897E-10
0.67672322E-11
0.12578229E-10
0.59002775E-10
0.12041511E-09
0.17538725E-09
0.21270108E-09
0.22878266E-09
0.22401414E-09
0.20305883E-09
0.17144641E-09
0.13532447E-09
0.99094254E-10
0.66574996E-10
0.40069809E-10
0.20671465E-10
