atomic number =   84
effective nuclear charge =   84
electron count =   78
net charge =    6
basis set = approximate basis set limit (UGBS)      
exchange correlation functional = PW91PW91            
cutoff radius (picometer) =  300
number of shells =   50
prepared by = Thomas A. Manz      
prepared date = July 2010           
net magnetization =    0
density in atomic units:
0.90995609E+05
0.28786603E+03
0.89164124E+02
0.45559227E+02
0.17656395E+02
0.71316586E+01
0.41735234E+01
0.29139743E+01
0.20023210E+01
0.13361679E+01
0.85423172E+00
0.53122103E+00
0.33748126E+00
0.21100487E+00
0.13243937E+00
0.82834825E-01
0.51641036E-01
0.33083178E-01
0.21072024E-01
0.13452022E-01
0.86239781E-02
0.55342219E-02
0.35723664E-02
0.23106590E-02
0.14940180E-02
0.96709939E-03
0.62873302E-03
0.41420903E-03
0.27119351E-03
0.17710203E-03
0.11624464E-03
0.76024269E-04
0.49887185E-04
0.32619562E-04
0.21312593E-04
0.14024605E-04
0.92755081E-05
0.61393753E-05
0.40551440E-05
0.27048295E-05
0.18227162E-05
0.12268623E-05
0.83373897E-06
0.57100772E-06
0.39164496E-06
0.27028335E-06
0.18641811E-06
0.12855966E-06
0.88525425E-07
0.60970422E-07
