atomic number =   86
effective nuclear charge =   86
electron count =   78
net charge =    8
basis set = approximate basis set limit (UGBS)      
exchange correlation functional = PW91PW91            
cutoff radius (picometer) =  300
number of shells =   50
prepared by = Thomas A. Manz      
prepared date = July 2010           
net magnetization =    0
density in atomic units:
0.97831000E+05
0.29310999E+03
0.95197418E+02
0.45510933E+02
0.16754480E+02
0.70888171E+01
0.43864975E+01
0.30430260E+01
0.20129554E+01
0.12789706E+01
0.77449423E+00
0.45495322E+00
0.27380764E+00
0.16174528E+00
0.95754273E-01
0.56373313E-01
0.32989722E-01
0.19896034E-01
0.11911484E-01
0.71451594E-02
0.43026539E-02
0.25899590E-02
0.15667841E-02
0.94845938E-03
0.57311472E-03
0.34645561E-03
0.21047758E-03
0.12991863E-03
0.79693484E-04
0.48770933E-04
0.30035575E-04
0.18415536E-04
0.11321012E-04
0.69197063E-05
0.42151114E-05
0.25830052E-05
0.15885707E-05
0.97672114E-06
0.59887896E-06
0.37212016E-06
0.23494502E-06
0.14906284E-06
0.96418546E-07
0.63520943E-07
0.42356920E-07
0.28709177E-07
0.19637790E-07
0.13515047E-07
0.93398498E-08
0.64714674E-08
