atomic number =   95
effective nuclear charge =   95
electron count =   86
net charge =    9
basis set = approximate basis set limit (UGBS)      
exchange correlation functional = PW91PW91            
cutoff radius (picometer) =  300
number of shells =   50
prepared by = Thomas A. Manz      
prepared date = July 2010           
net magnetization =    0
density in atomic units:
0.13191311E+06
0.32007861E+03
0.11753969E+03
0.40263920E+02
0.14787870E+02
0.82052822E+01
0.49434996E+01
0.28643403E+01
0.16123003E+01
0.96732825E+00
0.63093191E+00
0.44623610E+00
0.33814284E+00
0.25831670E+00
0.19775540E+00
0.14950074E+00
0.11141966E+00
0.83339438E-01
0.61385781E-01
0.44862650E-01
0.32649968E-01
0.23650102E-01
0.17131219E-01
0.12378619E-01
0.89078154E-02
0.63910871E-02
0.45857127E-02
0.33148699E-02
0.23799951E-02
0.17040694E-02
0.12252760E-02
0.87953667E-03
0.63400494E-03
0.45653537E-03
0.32906217E-03
0.23868315E-03
0.17377625E-03
0.12644289E-03
0.91644019E-04
0.66723631E-04
0.48760226E-04
0.35438596E-04
0.25828203E-04
0.18850043E-04
0.13713413E-04
0.99924700E-05
0.72560406E-05
0.52606752E-05
0.38058854E-05
0.27565302E-05
