atomic number =   95
effective nuclear charge =   95
electron count =   86
net charge =    9
basis set = approximate basis set limit (UGBS)      
exchange correlation functional = PW91PW91            
cutoff radius (picometer) =  500
number of shells =  100
prepared by = Thomas A. Manz      
prepared date = July 2010           
net magnetization =    0
density in atomic units:
0.91507288E+06
0.71271967E+03
0.17193416E+03
0.78820969E+02
0.26941118E+02
0.13322444E+02
0.86444464E+01
0.57023416E+01
0.36353865E+01
0.22364643E+01
0.13876432E+01
0.92524511E+00
0.65174079E+00
0.48429555E+00
0.38053203E+00
0.30482459E+00
0.24281313E+00
0.19391386E+00
0.15396124E+00
0.12055863E+00
0.94263203E-01
0.73661193E-01
0.56897439E-01
0.43695781E-01
0.33582792E-01
0.25680386E-01
0.19568022E-01
0.14952686E-01
0.11356606E-01
0.86313281E-02
0.65761148E-02
0.49843127E-02
0.37867343E-02
0.28810170E-02
0.21905750E-02
0.16610040E-02
0.12581937E-02
0.95414754E-03
0.72690123E-03
0.55303960E-03
0.42109244E-03
0.32112873E-03
0.24473702E-03
0.18790852E-03
0.14430191E-03
0.11013958E-03
0.84366722E-04
0.65011372E-04
0.49920953E-04
0.38331626E-04
0.29429781E-04
0.22549342E-04
0.17327622E-04
0.13339965E-04
0.10250062E-04
0.78625044E-05
0.60125885E-05
0.45948123E-05
0.35119645E-05
0.26839541E-05
0.20484088E-05
0.15605409E-05
0.11893975E-05
0.90412669E-06
0.68626065E-06
0.52222015E-06
0.39689465E-06
0.30010330E-06
0.22659587E-06
0.17056674E-06
0.12857502E-06
0.96767799E-07
0.72549604E-07
0.54392192E-07
0.40582485E-07
0.30204330E-07
0.22426834E-07
0.16595443E-07
0.12258043E-07
0.90450536E-08
0.66380625E-08
0.48548614E-08
0.35392052E-08
0.25773428E-08
0.18825130E-08
0.13781769E-08
0.10088121E-08
0.74215045E-09
0.54864313E-09
0.40843043E-09
0.30877292E-09
0.23703065E-09
0.18568300E-09
0.14984396E-09
0.12464611E-09
0.10745987E-09
0.96323838E-10
0.89611957E-10
0.86294263E-10
0.85938173E-10
