atomic number =   89
effective nuclear charge =   89
electron count =   86
net charge =    3
basis set = approximate basis set limit (UGBS)      
exchange correlation functional = PW91PW91            
cutoff radius (picometer) =  500
number of shells =  100
prepared by = Thomas A. Manz      
prepared date = July 2010           
net magnetization =    0
density in atomic units:
0.75328312E+06
0.66538049E+03
0.14529207E+03
0.77203659E+02
0.30993908E+02
0.13886816E+02
0.80118427E+01
0.54550152E+01
0.38344088E+01
0.25843496E+01
0.16959623E+01
0.11417249E+01
0.78363472E+00
0.55963522E+00
0.42724419E+00
0.33867797E+00
0.27187192E+00
0.22193164E+00
0.18179987E+00
0.14783579E+00
0.12026095E+00
0.97759612E-01
0.78597337E-01
0.62780961E-01
0.50079327E-01
0.39693698E-01
0.31300038E-01
0.24692209E-01
0.19340130E-01
0.15131113E-01
0.11845751E-01
0.92180949E-02
0.71801869E-02
0.55944594E-02
0.43529575E-02
0.33759994E-02
0.26144290E-02
0.20254864E-02
0.15752364E-02
0.12228326E-02
0.94938930E-03
0.73776173E-03
0.57262235E-03
0.44723981E-03
0.34918517E-03
0.27092817E-03
0.21076045E-03
0.16483311E-03
0.12841413E-03
0.10000332E-03
0.77851248E-04
0.60468068E-04
0.47098420E-04
0.36743175E-04
0.28618646E-04
0.22252883E-04
0.17257367E-04
0.13379583E-04
0.10376102E-04
0.80488626E-05
0.62395661E-05
0.48286070E-05
0.37430921E-05
0.28943189E-05
0.22377756E-05
0.17337087E-05
0.13431338E-05
0.10349316E-05
0.79735963E-06
0.61282788E-06
0.47213138E-06
0.36340018E-06
0.27901302E-06
0.21431438E-06
0.16398214E-06
0.12521492E-06
0.95479692E-07
0.72614547E-07
0.55161443E-07
0.41909988E-07
0.31704101E-07
0.23895204E-07
0.17967613E-07
0.13496157E-07
0.10155728E-07
0.76475368E-08
0.57571041E-08
0.43401340E-08
0.32796621E-08
0.24794364E-08
0.18919553E-08
0.14533210E-08
0.11252398E-08
0.88446328E-09
0.70478179E-09
0.57112565E-09
0.47341930E-09
0.40028694E-09
0.34597428E-09
0.30653391E-09
