atomic number =   90
effective nuclear charge =   90
electron count =   86
net charge =    4
basis set = approximate basis set limit (UGBS)      
exchange correlation functional = PW91PW91            
cutoff radius (picometer) =  500
number of shells =  100
prepared by = Thomas A. Manz      
prepared date = July 2010           
net magnetization =    0
density in atomic units:
0.77916150E+06
0.67394141E+03
0.14943140E+03
0.77996658E+02
0.30298529E+02
0.13707596E+02
0.81323004E+01
0.55571556E+01
0.38491116E+01
0.25485015E+01
0.16501715E+01
0.11056736E+01
0.76199806E+00
0.54957378E+00
0.42351794E+00
0.33757377E+00
0.27107286E+00
0.22022443E+00
0.17883728E+00
0.14370306E+00
0.11532755E+00
0.92411488E-01
0.73168509E-01
0.57534859E-01
0.45189071E-01
0.35266925E-01
0.27384857E-01
0.21284912E-01
0.16424717E-01
0.12663625E-01
0.97731948E-02
0.74965050E-02
0.57573072E-02
0.44233259E-02
0.33937334E-02
0.25952491E-02
0.19814121E-02
0.15136575E-02
0.11609669E-02
0.88888197E-03
0.68063883E-03
0.52181695E-03
0.39958293E-03
0.30805485E-03
0.23743064E-03
0.18183410E-03
0.13965416E-03
0.10787609E-03
0.82994797E-04
0.63828076E-04
0.49068880E-04
0.37632115E-04
0.28941800E-04
0.22293576E-04
0.17139157E-04
0.13151201E-04
0.10060743E-04
0.76917659E-05
0.58811970E-05
0.44970384E-05
0.34346181E-05
0.26182015E-05
0.19985407E-05
0.15215522E-05
0.11573883E-05
0.88218388E-06
0.67202456E-06
0.50932965E-06
0.38573054E-06
0.29146588E-06
0.22068964E-06
0.16691934E-06
0.12585831E-06
0.94900713E-07
0.71238141E-07
0.53341775E-07
0.39876223E-07
0.29715212E-07
0.22115421E-07
0.16466736E-07
0.12197011E-07
0.89920293E-08
0.66093344E-08
0.48535260E-08
0.35706902E-08
0.26288791E-08
0.19358062E-08
0.14280809E-08
0.10574144E-08
0.78604828E-09
0.59152799E-09
0.45017676E-09
0.34830211E-09
0.27624608E-09
0.22440304E-09
0.18813928E-09
0.16321451E-09
0.14628562E-09
0.13537116E-09
0.12906784E-09
