atomic number =  100
effective nuclear charge =  100
electron count =   78
net charge =   22
basis set = approximate basis set limit (UGBS)      
exchange correlation functional = PW91PW91            
cutoff radius (picometer) =  300
number of shells =   50
prepared by = Thomas A. Manz      
prepared date = July 2010           
net magnetization =    0
density in atomic units:
0.15282905E+06
0.33681470E+03
0.12251279E+03
0.35999691E+02
0.14336676E+02
0.82982664E+01
0.45900812E+01
0.23441279E+01
0.10906601E+01
0.48918357E+00
0.20911114E+00
0.86917423E-01
0.38572885E-01
0.16937006E-01
0.74954391E-02
0.32849999E-02
0.14042152E-02
0.62404160E-03
0.27263860E-03
0.11957034E-03
0.53017557E-04
0.23574550E-04
0.10548160E-04
0.46959290E-05
0.20647328E-05
0.90541351E-06
0.40609788E-06
0.19613633E-06
0.10244901E-06
0.59301456E-07
0.37690615E-07
0.24940286E-07
0.16612647E-07
0.10773294E-07
0.67469421E-08
0.41654218E-08
0.26580405E-08
0.19165198E-08
0.16833005E-08
0.17369607E-08
0.18961939E-08
0.20466855E-08
0.21159556E-08
0.20838313E-08
0.19516408E-08
0.17442569E-08
0.14878715E-08
0.12145873E-08
0.95021557E-09
0.71603706E-09
