atomic number =   86
effective nuclear charge =   86
electron count =    2
net charge =   84
basis set = approximate basis set limit (UGBS)      
exchange correlation functional = PW91PW91            
cutoff radius (picometer) =  300
number of shells =   50
prepared by = Thomas A. Manz      
prepared date = July 2010           
net magnetization =    0
density in atomic units:
0.80896836E+05
0.52588969E-03
0.49425049E-04
0.15933798E-04
0.35125233E-05
0.96471979E-06
0.66846655E-06
0.35829061E-06
0.26464376E-07
0.11982969E-06
0.80714912E-07
0.99251825E-08
0.56007750E-08
0.19167036E-07
0.18658374E-07
0.87966345E-08
0.15441259E-08
0.24161095E-09
0.17997963E-08
0.31931593E-08
0.32389715E-08
0.22956479E-08
0.11614203E-08
0.35931849E-09
0.31623856E-10
0.66756538E-10
0.25898186E-09
0.43892798E-09
0.53008437E-09
0.51499749E-09
0.42323672E-09
0.29726333E-09
0.17658572E-09
0.82671182E-10
0.25306384E-10
0.24612497E-11
0.44525434E-11
0.21031536E-10
0.43007656E-10
0.62699582E-10
0.76078061E-10
0.81862961E-10
0.80189494E-10
0.72716777E-10
0.61401856E-10
0.48480754E-10
0.35510869E-10
0.23867039E-10
0.14368748E-10
0.74176941E-11
