atomic number =   90
effective nuclear charge =   90
electron count =   80
net charge =   10
basis set = approximate basis set limit (UGBS)      
exchange correlation functional = PW91PW91            
cutoff radius (picometer) =  400
number of shells =   75
prepared by = Thomas A. Manz      
prepared date = July 2010           
net magnetization =    0
density in atomic units:
0.11236070E+06
0.43751508E+03
0.13046674E+03
0.70186737E+02
0.27110662E+02
0.11131694E+02
0.67374525E+01
0.46239562E+01
0.30577879E+01
0.19316595E+01
0.11989666E+01
0.74143118E+00
0.46186090E+00
0.29552451E+00
0.19306867E+00
0.12809497E+00
0.85764594E-01
0.58108903E-01
0.39942708E-01
0.27722679E-01
0.19332983E-01
0.13486765E-01
0.93655279E-02
0.65134205E-02
0.45284810E-02
0.31418439E-02
0.21771111E-02
0.15105363E-02
0.10369619E-02
0.71073504E-03
0.49258588E-03
0.34067713E-03
0.23326735E-03
0.15922965E-03
0.10982448E-03
0.75808974E-04
0.52040512E-04
0.35924386E-04
0.24983501E-04
0.17307259E-04
0.11951501E-04
0.83229397E-05
0.58084643E-05
0.40496625E-05
0.28309437E-05
0.19788533E-05
0.13840207E-05
0.96620704E-06
0.67073734E-06
0.46503399E-06
0.32152957E-06
0.22179287E-06
0.15167953E-06
0.10306282E-06
0.69863106E-07
0.46745374E-07
0.30824864E-07
0.20114308E-07
0.12957336E-07
0.81819413E-08
0.50420175E-08
0.30384502E-08
0.17751629E-08
0.99855846E-09
0.54061633E-09
0.28569042E-09
0.15687021E-09
0.10023660E-09
0.83861633E-10
0.87304268E-10
0.97961410E-10
0.10913946E-09
0.11720772E-09
0.12076808E-09
0.11971103E-09
