atomic number =   85
effective nuclear charge =   85
electron count =   80
net charge =    5
basis set = approximate basis set limit (UGBS)      
exchange correlation functional = PW91PW91            
cutoff radius (picometer) =  400
number of shells =   75
prepared by = Thomas A. Manz      
prepared date = July 2010           
net magnetization =    0
density in atomic units:
0.94403188E+05
0.42626611E+03
0.11271029E+03
0.66545387E+02
0.30120735E+02
0.11951724E+02
0.62341924E+01
0.41535554E+01
0.29391811E+01
0.20508068E+01
0.14056996E+01
0.94919312E+00
0.63654327E+00
0.43150175E+00
0.29547924E+00
0.20449805E+00
0.14296319E+00
0.10157537E+00
0.73649980E-01
0.54278158E-01
0.40477045E-01
0.30400138E-01
0.22896286E-01
0.17357819E-01
0.13218880E-01
0.10091939E-01
0.77255978E-02
0.59379693E-02
0.45399922E-02
0.34761233E-02
0.26865106E-02
0.20755546E-02
0.15934426E-02
0.12212023E-02
0.94274909E-03
0.72761049E-03
0.55900565E-03
0.43070523E-03
0.33312032E-03
0.25657786E-03
0.19688479E-03
0.15179809E-03
0.11707353E-03
0.90156289E-04
0.69535854E-04
0.53622938E-04
0.41401043E-04
0.31947151E-04
0.24605693E-04
0.18980660E-04
0.14662145E-04
0.11352139E-04
0.87791204E-05
0.67987698E-05
0.52877967E-05
0.41075732E-05
0.31878692E-05
0.24798064E-05
0.19346794E-05
0.15092046E-05
0.11773615E-05
0.92129028E-06
0.72131951E-06
0.56451648E-06
0.44178347E-06
0.34591710E-06
0.27144412E-06
0.21265528E-06
0.16639861E-06
0.13046126E-06
0.10250002E-06
0.80165684E-07
0.62565917E-07
0.48844722E-07
0.38171219E-07
