atomic number =   61
effective nuclear charge =   61
electron count =   48
net charge =   13
basis set = approximate basis set limit (UGBS)      
exchange correlation functional = PW91PW91            
cutoff radius (picometer) =  500
number of shells =  100
prepared by = Thomas A. Manz      
prepared date = July 2010           
net magnetization =    0
density in atomic units:
0.22507927E+06
0.38502536E+03
0.11858465E+03
0.30091309E+02
0.13692927E+02
0.10665965E+02
0.75475688E+01
0.45811481E+01
0.26264508E+01
0.14602844E+01
0.81408483E+00
0.48241255E+00
0.29550588E+00
0.18868829E+00
0.12938708E+00
0.91800399E-01
0.65279394E-01
0.47181308E-01
0.34211807E-01
0.24559002E-01
0.17720198E-01
0.12847237E-01
0.92086568E-02
0.65695937E-02
0.46993657E-02
0.33436229E-02
0.23690551E-02
0.16847397E-02
0.11887224E-02
0.83905243E-03
0.59387850E-03
0.41735501E-03
0.29404930E-03
0.20746802E-03
0.14621034E-03
0.10266098E-03
0.71964008E-04
0.50510473E-04
0.35659763E-04
0.25135636E-04
0.17731922E-04
0.12537989E-04
0.88588158E-05
0.63203001E-05
0.45115894E-05
0.31967829E-05
0.22747640E-05
0.16315894E-05
0.11647576E-05
0.83098956E-06
0.59250800E-06
0.42085628E-06
0.29966327E-06
0.21350037E-06
0.15140782E-06
0.10680882E-06
0.74797676E-07
0.52127444E-07
0.36142644E-07
0.24927862E-07
0.17035161E-07
0.11525226E-07
0.77287750E-08
0.51108815E-08
0.33260108E-08
0.21400091E-08
0.13500829E-08
0.82595730E-09
0.49146104E-09
0.28162012E-09
0.15615233E-09
0.83541465E-10
0.43599825E-10
0.23964997E-10
0.15776718E-10
0.13738295E-10
0.14522055E-10
0.16142535E-10
0.17538008E-10
0.18243209E-10
0.18128632E-10
0.17237966E-10
0.15743446E-10
0.13848698E-10
0.11762143E-10
0.96653007E-11
0.76785219E-11
0.59153086E-11
0.44467095E-11
0.33143156E-11
0.25526471E-11
0.21465646E-11
0.20748327E-11
0.23036310E-11
0.28018382E-11
0.35097444E-11
0.43866842E-11
0.53915340E-11
0.64864806E-11
0.76069160E-11
