atomic number =   85
effective nuclear charge =   85
electron count =   30
net charge =   55
basis set = approximate basis set limit (UGBS)      
exchange correlation functional = PW91PW91            
cutoff radius (picometer) =  300
number of shells =   50
prepared by = Thomas A. Manz      
prepared date = July 2010           
net magnetization =    0
density in atomic units:
0.94077133E+05
0.23233664E+03
0.22311930E+02
0.39967754E+01
0.98331666E+00
0.17851783E+00
0.27443072E-01
0.44458038E-02
0.67472912E-03
0.10758999E-03
0.16520415E-04
0.19248741E-05
0.15653428E-06
0.39822336E-07
0.48362903E-07
0.25819181E-07
0.58706524E-08
0.27058302E-08
0.78104767E-08
0.11960809E-07
0.11663466E-07
0.82203826E-08
0.42636938E-08
0.14873216E-08
0.33812458E-09
0.42955076E-09
0.10634345E-08
0.16626457E-08
0.19621682E-08
0.18983484E-08
0.15693218E-08
0.11196064E-08
0.68624467E-09
0.34506553E-09
0.13194741E-09
0.41584455E-10
0.40902864E-10
0.94187103E-10
0.16895088E-09
0.23760846E-09
0.28510755E-09
0.30624572E-09
0.30105468E-09
0.27469887E-09
0.23421087E-09
0.18739371E-09
0.13986125E-09
0.96711278E-10
0.60984634E-10
0.34352861E-10
