atomic number =   93
effective nuclear charge =   93
electron count =   10
net charge =   83
basis set = approximate basis set limit (UGBS)      
exchange correlation functional = PW91PW91            
cutoff radius (picometer) =  300
number of shells =   50
prepared by = Thomas A. Manz      
prepared date = July 2010           
net magnetization =    0
density in atomic units:
0.11777073E+06
0.22971423E+01
0.10255417E-02
0.35024739E-04
0.81686776E-05
0.21715748E-05
0.15659426E-05
0.82345974E-06
0.64192974E-07
0.28108829E-06
0.18796395E-06
0.23289594E-07
0.13512749E-07
0.45081059E-07
0.43750116E-07
0.20643583E-07
0.36730767E-08
0.61916128E-09
0.42572186E-08
0.75126918E-08
0.76165847E-08
0.54035372E-08
0.27417240E-08
0.85666119E-09
0.83652772E-10
0.16261738E-09
0.61170563E-09
0.10333647E-08
0.12475015E-08
0.12127394E-08
0.99763853E-09
0.70192074E-09
0.41809173E-09
0.19692324E-09
0.61458102E-10
0.71283136E-11
0.11287695E-10
0.49879871E-10
0.10134662E-09
0.14759044E-09
0.17901051E-09
0.19270546E-09
0.18890864E-09
0.17144146E-09
0.14492206E-09
0.11456806E-09
0.84041774E-10
0.56626325E-10
0.34219558E-10
0.17796414E-10
