atomic number =   78
effective nuclear charge =   78
electron count =    2
net charge =   76
basis set = approximate basis set limit (UGBS)      
exchange correlation functional = PW91PW91            
cutoff radius (picometer) =  500
number of shells =  100
prepared by = Thomas A. Manz      
prepared date = July 2010           
net magnetization =    0
density in atomic units:
0.42145562E+06
0.14030485E-01
0.75683485E-04
0.14506744E-04
0.37143921E-05
0.30595290E-05
0.86873888E-06
0.32766170E-06
0.46209669E-06
0.78349466E-07
0.31577333E-07
0.89022222E-07
0.62749812E-07
0.14568286E-07
0.91134655E-09
0.81136795E-08
0.14562416E-07
0.12798410E-07
0.69011530E-08
0.19541020E-08
0.12140756E-09
0.49870125E-09
0.15795379E-08
0.23010487E-08
0.23245266E-08
0.18246249E-08
0.11329351E-08
0.53807364E-09
0.15741036E-09
0.12389197E-10
0.36582862E-10
0.14478130E-09
0.26303112E-09
0.34648034E-09
0.37821657E-09
0.35990155E-09
0.30507435E-09
0.23206380E-09
0.15832637E-09
0.93816198E-10
0.45590774E-10
0.15625690E-10
0.20606661E-11
0.13951942E-11
0.90599516E-11
0.21285723E-10
0.34177945E-10
0.45151282E-10
0.53100829E-10
0.57238922E-10
0.57589135E-10
0.54675764E-10
0.49351800E-10
0.42511786E-10
0.34916361E-10
0.27250095E-10
0.20060517E-10
0.13804891E-10
0.87239009E-11
0.48903607E-11
0.22458218E-11
0.68921729E-12
0.64199039E-13
0.17192716E-12
0.82039388E-12
0.18046935E-11
0.29733757E-11
0.42024886E-11
0.53657313E-11
0.63852083E-11
0.71933822E-11
0.77741910E-11
0.81225538E-11
0.82418117E-11
0.81533001E-11
0.78812642E-11
0.74597611E-11
0.69213693E-11
0.63025301E-11
0.56390348E-11
0.49478299E-11
0.42560287E-11
0.35855062E-11
0.29565361E-11
0.23853610E-11
0.18767930E-11
0.14299238E-11
0.10499210E-11
0.73515830E-12
0.48131979E-12
0.28943493E-12
0.15114135E-12
0.60679550E-13
0.13321657E-13
0.15316883E-14
0.19260440E-13
0.60108656E-13
0.11912637E-12
0.19129735E-12
0.27130761E-12
