atomic number =   80
effective nuclear charge =   80
electron count =    4
net charge =   76
basis set = approximate basis set limit (UGBS)      
exchange correlation functional = PW91PW91            
cutoff radius (picometer) =  300
number of shells =   50
prepared by = Thomas A. Manz      
prepared date = July 2010           
net magnetization =    0
density in atomic units:
0.74607703E+05
0.24901893E+01
0.33406348E-02
0.14334024E-04
0.44470889E-05
0.11077877E-05
0.84866019E-06
0.43163161E-06
0.34151046E-07
0.15232631E-06
0.10011051E-06
0.11885620E-07
0.74015061E-08
0.24491694E-07
0.23561771E-07
0.11002563E-07
0.18934891E-08
0.32128708E-09
0.23252236E-08
0.40819486E-08
0.41193839E-08
0.29086016E-08
0.14651133E-08
0.44973530E-09
0.38673151E-10
0.87434733E-10
0.33367770E-09
0.56253424E-09
0.67736577E-09
0.65684286E-09
0.53903448E-09
0.37801101E-09
0.22413019E-09
0.10464913E-09
0.31845838E-10
0.30384805E-11
0.58278330E-11
0.27123807E-10
0.55217411E-10
0.80339423E-10
0.97361688E-10
0.10471904E-09
0.10245096E-09
0.92849423E-10
0.78372295E-10
0.61827515E-10
0.45268019E-10
0.30407562E-10
0.18288740E-10
0.94269297E-11
