atomic number =   60
effective nuclear charge =   60
electron count =   48
net charge =   12
basis set = approximate basis set limit (UGBS)      
exchange correlation functional = PW91PW91            
cutoff radius (picometer) =  400
number of shells =   75
prepared by = Thomas A. Manz      
prepared date = July 2010           
net magnetization =    0
density in atomic units:
0.31066672E+05
0.25215050E+03
0.91285461E+02
0.25895073E+02
0.12699626E+02
0.93686199E+01
0.63293757E+01
0.37124565E+01
0.20122418E+01
0.10826745E+01
0.60330218E+00
0.35336480E+00
0.21840473E+00
0.14361133E+00
0.98312587E-01
0.68800621E-01
0.48502367E-01
0.34348994E-01
0.24459474E-01
0.17440781E-01
0.12417159E-01
0.87999385E-02
0.61880625E-02
0.43467926E-02
0.30475659E-02
0.21299531E-02
0.14856978E-02
0.10370289E-02
0.71599864E-03
0.49345155E-03
0.34377610E-03
0.23897058E-03
0.16449182E-03
0.11289364E-03
0.78286263E-04
0.54334250E-04
0.37507227E-04
0.26036549E-04
0.18206934E-04
0.12684571E-04
0.88075831E-05
0.61673900E-05
0.43278028E-05
0.30336821E-05
0.21323904E-05
0.14987445E-05
0.10539596E-05
0.73988542E-06
0.51668314E-06
0.36052330E-06
0.25100172E-06
0.17446391E-06
0.12037721E-06
0.82624950E-07
0.56656670E-07
0.38426315E-07
0.25751062E-07
0.17126503E-07
0.11291080E-07
0.73322970E-08
0.46776214E-08
0.29389029E-08
0.18050955E-08
0.10756085E-08
0.62009964E-09
0.34185874E-09
0.18051453E-09
0.89789287E-10
0.43029809E-10
0.22163514E-10
0.15228751E-10
0.15011232E-10
0.17469207E-10
0.20250827E-10
0.22209469E-10
