atomic number =   78
effective nuclear charge =   78
electron count =    4
net charge =   74
basis set = approximate basis set limit (UGBS)      
exchange correlation functional = PW91PW91            
cutoff radius (picometer) =  500
number of shells =  100
prepared by = Thomas A. Manz      
prepared date = July 2010           
net magnetization =    0
density in atomic units:
0.48189769E+06
0.31505808E+02
0.61402190E-01
0.16925282E-03
0.43594773E-05
0.48826296E-05
0.12637339E-05
0.53768048E-06
0.71775452E-06
0.11663489E-06
0.52773345E-07
0.14252957E-06
0.98612922E-07
0.22359396E-07
0.15113524E-08
0.13283784E-07
0.23419886E-07
0.20410084E-07
0.10925154E-07
0.30543457E-08
0.18449763E-09
0.82671392E-09
0.25665678E-08
0.37124290E-08
0.37355337E-08
0.29233784E-08
0.18095051E-08
0.85574459E-09
0.24814092E-09
0.19036108E-10
0.60685248E-10
0.23598651E-09
0.42625400E-09
0.55985555E-09
0.60996347E-09
0.57966087E-09
0.49078014E-09
0.37286688E-09
0.25408067E-09
0.15030269E-09
0.72847200E-10
0.24834725E-10
0.32164349E-11
0.23278981E-11
0.14802810E-10
0.34570569E-10
0.55365223E-10
0.73028181E-10
0.85805904E-10
0.92421487E-10
0.92936180E-10
0.88182975E-10
0.79568435E-10
0.68509372E-10
0.56250223E-10
0.43886117E-10
0.32284776E-10
0.22205866E-10
0.14017823E-10
0.78475594E-11
0.35960835E-11
0.10978071E-11
0.10051861E-12
0.28347320E-12
0.13366951E-11
0.29296687E-11
0.48183341E-11
0.68021656E-11
0.86786750E-11
0.10322763E-10
0.11625657E-10
0.12559950E-10
0.13117140E-10
0.13326095E-10
0.13159349E-10
0.12722988E-10
0.12040386E-10
0.11171179E-10
0.10170465E-10
0.90983653E-11
0.79820907E-11
0.68654652E-11
0.57827063E-11
0.47679903E-11
0.38461027E-11
0.30257487E-11
0.23048538E-11
0.16918590E-11
0.11839517E-11
0.77494537E-12
0.46564277E-12
0.24286646E-12
0.97248286E-13
0.21199273E-13
0.25212522E-14
0.31465156E-13
0.97658718E-13
0.19317889E-12
0.30987111E-12
0.43915403E-12
