atomic number =   60
effective nuclear charge =   60
electron count =    4
net charge =   56
basis set = approximate basis set limit (UGBS)      
exchange correlation functional = PW91PW91            
cutoff radius (picometer) =  300
number of shells =   50
prepared by = Thomas A. Manz      
prepared date = July 2010           
net magnetization =    0
density in atomic units:
0.29702121E+05
0.11618594E+02
0.12119680E+00
0.72903017E-03
0.83131436E-05
0.48438528E-06
0.27384905E-06
0.14221685E-06
0.11453234E-07
0.51119684E-07
0.33425248E-07
0.39191903E-08
0.25388669E-08
0.82982190E-08
0.79462197E-08
0.36946217E-08
0.62943978E-09
0.11147144E-09
0.79475276E-09
0.13876050E-08
0.13965875E-08
0.98398090E-09
0.49442017E-09
0.15103183E-09
0.12804854E-10
0.30206289E-10
0.11411964E-09
0.19174486E-09
0.23052379E-09
0.22324874E-09
0.18302106E-09
0.12823821E-09
0.75940768E-10
0.35391641E-10
0.10725146E-10
0.10098272E-11
0.20175675E-11
0.92966997E-11
0.18865296E-10
0.27408907E-10
0.33181635E-10
0.35651881E-10
0.34874721E-10
0.31594154E-10
0.26656085E-10
0.21025662E-10
0.15385774E-10
0.10329168E-10
0.62080150E-11
0.31964689E-11
