atomic number =   93
effective nuclear charge =   93
electron count =   80
net charge =   13
basis set = approximate basis set limit (UGBS)      
exchange correlation functional = PW91PW91            
cutoff radius (picometer) =  500
number of shells =  100
prepared by = Thomas A. Manz      
prepared date = July 2010           
net magnetization =    0
density in atomic units:
0.85942462E+06
0.69708997E+03
0.16193730E+03
0.78898315E+02
0.28109861E+02
0.13057357E+02
0.81646128E+01
0.55690346E+01
0.37332189E+01
0.23659177E+01
0.14455408E+01
0.89548248E+00
0.55108094E+00
0.34203276E+00
0.22393516E+00
0.15065244E+00
0.10134447E+00
0.69714248E-01
0.48463102E-01
0.33556554E-01
0.23526721E-01
0.16675085E-01
0.11726989E-01
0.82341777E-02
0.58116978E-02
0.40863175E-02
0.28640670E-02
0.20170407E-02
0.14100268E-02
0.98659901E-03
0.69257815E-03
0.48278505E-03
0.33747879E-03
0.23628215E-03
0.16526808E-03
0.11516805E-03
0.80129154E-04
0.55831890E-04
0.39139268E-04
0.27401358E-04
0.19204550E-04
0.13496646E-04
0.94812385E-05
0.67294695E-05
0.47804801E-05
0.33720798E-05
0.23899397E-05
0.17080982E-05
0.12153980E-05
0.86448807E-06
0.61451965E-06
0.43511977E-06
0.30877828E-06
0.21915218E-06
0.15473377E-06
0.10859205E-06
0.75578754E-07
0.52267627E-07
0.35878841E-07
0.24442237E-07
0.16441135E-07
0.10900764E-07
0.71268498E-08
0.45622097E-08
0.28469211E-08
0.17385927E-08
0.10290124E-08
0.57940197E-09
0.31396052E-09
0.16642826E-09
0.94290055E-10
0.66561361E-10
0.63544128E-10
0.73032885E-10
0.87153132E-10
0.10120579E-09
0.11268383E-09
0.12045775E-09
0.12413304E-09
0.12409467E-09
0.12081013E-09
0.11482517E-09
0.10703737E-09
0.97942342E-10
0.88258317E-10
0.78531751E-10
0.68988933E-10
0.60014993E-10
0.51815361E-10
0.44506631E-10
0.38263132E-10
0.33121658E-10
0.28888083E-10
0.25776905E-10
0.23583238E-10
0.22180221E-10
0.21549418E-10
0.21552076E-10
0.22077798E-10
0.22949746E-10
