atomic number =   94
effective nuclear charge =   94
electron count =   80
net charge =   14
basis set = approximate basis set limit (UGBS)      
exchange correlation functional = PW91PW91            
cutoff radius (picometer) =  400
number of shells =   75
prepared by = Thomas A. Manz      
prepared date = July 2010           
net magnetization =    0
density in atomic units:
0.12787959E+06
0.44264758E+03
0.14526001E+03
0.69553719E+02
0.24656582E+02
0.11087158E+02
0.71317244E+01
0.46697268E+01
0.28493600E+01
0.16675638E+01
0.97183824E+00
0.57327724E+00
0.34575653E+00
0.21710770E+00
0.14035104E+00
0.92467964E-01
0.61469126E-01
0.41267544E-01
0.28036354E-01
0.19189170E-01
0.13172932E-01
0.90351747E-02
0.61629475E-02
0.42099045E-02
0.28750398E-02
0.19596543E-02
0.13345494E-02
0.91036048E-03
0.61432744E-03
0.41396182E-03
0.28228288E-03
0.19210535E-03
0.12940503E-03
0.86903769E-04
0.59011105E-04
0.40121111E-04
0.27132888E-04
0.18466915E-04
0.12675096E-04
0.86710388E-05
0.59190102E-05
0.40789478E-05
0.28204461E-05
0.19503461E-05
0.13535408E-05
0.94022323E-06
0.65391856E-06
0.45411088E-06
0.31372102E-06
0.21646767E-06
0.14895465E-06
0.10220781E-06
0.69462132E-07
0.46839986E-07
0.31450554E-07
0.20778030E-07
0.13477430E-07
0.86033793E-08
0.53879727E-08
0.32762111E-08
0.19204065E-08
0.10869584E-08
0.58747718E-09
0.30367639E-09
0.15880115E-09
0.97779736E-10
0.84884474E-10
0.96497879E-10
0.11834686E-09
0.14137451E-09
0.16059945E-09
0.17440689E-09
0.18198688E-09
0.18324976E-09
0.17918941E-09
