atomic number =  106
effective nuclear charge =  106
electron count =   12
net charge =   94
basis set = approximate basis set limit (UGBS)      
exchange correlation functional = PW91PW91            
cutoff radius (picometer) =  500
number of shells =  100
prepared by = Thomas A. Manz      
prepared date = July 2010           
net magnetization =    0
density in atomic units:
0.12318075E+07
0.89578720E+02
0.24048865E+01
0.34258850E-01
0.32091452E-03
0.16569787E-04
0.51029401E-05
0.23673763E-05
0.30782676E-05
0.51566059E-06
0.23161603E-06
0.60979278E-06
0.42428226E-06
0.98937626E-07
0.81278841E-08
0.57129473E-07
0.10028425E-06
0.87772676E-07
0.47412282E-07
0.13639413E-07
0.11083107E-08
0.36463099E-08
0.10992449E-07
0.15900671E-07
0.16047826E-07
0.12615500E-07
0.78635933E-08
0.37703725E-08
0.11408549E-08
0.12832882E-09
0.28095215E-09
0.10153630E-08
0.18238963E-08
0.23971742E-08
0.26173648E-08
0.24932025E-08
0.21174678E-08
0.16155652E-08
0.11069127E-08
0.66079248E-09
0.32606656E-09
0.11685371E-09
0.20775527E-10
0.14045450E-10
0.65266452E-10
0.14847221E-09
0.23689278E-09
0.31233843E-09
0.36733799E-09
0.39632503E-09
0.39924183E-09
0.37946138E-09
0.34315037E-09
0.29615480E-09
0.24377744E-09
0.19080941E-09
0.14097844E-09
0.97562215E-10
0.62168458E-10
0.35386607E-10
0.16811890E-10
0.57604225E-11
0.11779459E-11
0.16980065E-11
0.59983494E-11
0.12665447E-10
0.20638241E-10
0.29095048E-10
0.37109486E-10
0.44148164E-10
0.49742582E-10
0.53799968E-10
0.56261433E-10
0.57087529E-10
0.56599173E-10
0.54779271E-10
0.51876198E-10
0.48173555E-10
0.43926928E-10
0.39348382E-10
0.34577764E-10
0.29788946E-10
0.25146735E-10
0.20769901E-10
0.16801494E-10
0.13258977E-10
0.10142913E-10
0.74845382E-11
0.52795689E-11
0.34969562E-11
0.21448702E-11
0.11626897E-11
0.51397162E-12
0.16604631E-12
0.66635255E-13
0.17403017E-12
0.44399003E-12
0.84145955E-12
0.13310726E-11
0.18788402E-11
