atomic number =   92
effective nuclear charge =   92
electron count =    2
net charge =   90
basis set = approximate basis set limit (UGBS)      
exchange correlation functional = PW91PW91            
cutoff radius (picometer) =  300
number of shells =   50
prepared by = Thomas A. Manz      
prepared date = July 2010           
net magnetization =    0
density in atomic units:
0.98522438E+05
0.74101874E-03
0.63264633E-04
0.20357356E-04
0.44574008E-05
0.12330825E-05
0.84711769E-06
0.45597525E-06
0.33520667E-07
0.15185951E-06
0.10248352E-06
0.12636747E-07
0.70780999E-08
0.24283340E-07
0.23659881E-07
0.11162671E-07
0.19622963E-08
0.30526720E-09
0.22785762E-08
0.40455119E-08
0.41050350E-08
0.29103184E-08
0.14728669E-08
0.45591225E-09
0.40194788E-10
0.84433335E-10
0.32794362E-09
0.55597793E-09
0.67159533E-09
0.65259392E-09
0.53638799E-09
0.37679279E-09
0.22384072E-09
0.10480796E-09
0.32096801E-10
0.31258646E-11
0.56322087E-11
0.26627759E-10
0.54472322E-10
0.79431330E-10
0.96387322E-10
0.10371757E-09
0.10160908E-09
0.92132912E-10
0.77804714E-10
0.61438486E-10
0.45001679E-10
0.30247149E-10
0.18210225E-10
0.94023036E-11
