atomic number =   72
effective nuclear charge =   72
electron count =   48
net charge =   24
basis set = approximate basis set limit (UGBS)      
exchange correlation functional = PW91PW91            
cutoff radius (picometer) =  500
number of shells =  100
prepared by = Thomas A. Manz      
prepared date = July 2010           
net magnetization =    0
density in atomic units:
0.38679219E+06
0.48295935E+03
0.10581329E+03
0.30044504E+02
0.19900414E+02
0.12271181E+02
0.63276920E+01
0.29135711E+01
0.13951820E+01
0.71750528E+00
0.40249282E+00
0.25070709E+00
0.16153318E+00
0.10541648E+00
0.71126454E-01
0.48157774E-01
0.31851649E-01
0.21114698E-01
0.13916172E-01
0.89982040E-02
0.58403327E-02
0.38135487E-02
0.24539202E-02
0.15716301E-02
0.10123930E-02
0.64957427E-03
0.41582092E-03
0.26847064E-03
0.17219709E-03
0.11086000E-03
0.71845869E-04
0.46238230E-04
0.29892119E-04
0.19364135E-04
0.12517621E-04
0.80403870E-05
0.51387651E-05
0.32769988E-05
0.20957100E-05
0.13309502E-05
0.84091818E-06
0.52980897E-06
0.33124360E-06
0.20850663E-06
0.13055902E-06
0.80442454E-07
0.49578279E-07
0.30812785E-07
0.19003302E-07
0.11683496E-07
0.72004731E-08
0.44458295E-08
0.27850346E-08
0.17751419E-08
0.11503284E-08
0.76075679E-09
0.51554166E-09
0.36068745E-09
0.26135175E-09
0.19685464E-09
0.15438523E-09
0.12666994E-09
0.10923727E-09
0.98758376E-10
0.93223936E-10
0.90871664E-10
0.90491926E-10
0.91219012E-10
0.92120853E-10
0.92842373E-10
0.92916654E-10
0.91874779E-10
0.89998752E-10
0.87055772E-10
0.82987221E-10
0.77973676E-10
0.72377548E-10
0.66299778E-10
0.59780576E-10
0.53245797E-10
0.46666202E-10
0.40239839E-10
0.34154686E-10
0.28484819E-10
0.23396932E-10
0.18881920E-10
0.14911978E-10
0.11556547E-10
0.87549959E-11
0.64928826E-11
0.47691903E-11
0.35090628E-11
0.26670289E-11
0.21992479E-11
0.20484703E-11
0.21563073E-11
0.24766727E-11
0.29570339E-11
0.35500808E-11
0.42332982E-11
