atomic number =   10
effective nuclear charge =   10
electron count =    4
net charge =    6
basis set = approximate basis set limit (UGBS)      
exchange correlation functional = PW91PW91            
cutoff radius (picometer) =  500
number of shells =  100
prepared by = Thomas A. Manz      
prepared date = July 2010           
net magnetization =    0
density in atomic units:
0.65092957E+03
0.43097691E+02
0.62174621E+01
0.13730968E+01
0.73571318E+00
0.60292578E+00
0.48707041E+00
0.36795974E+00
0.26971650E+00
0.19138703E+00
0.13307889E+00
0.93130894E-01
0.63882209E-01
0.43157876E-01
0.29751021E-01
0.20552598E-01
0.13942966E-01
0.95389625E-02
0.65354197E-02
0.44314540E-02
0.30340888E-02
0.20990265E-02
0.14404225E-02
0.98833232E-03
0.68346370E-03
0.47208191E-03
0.32606101E-03
0.22706551E-03
0.15741435E-03
0.10956707E-03
0.76740725E-04
0.53500524E-04
0.37485639E-04
0.26354746E-04
0.18536828E-04
0.13005833E-04
0.91174088E-05
0.64034293E-05
0.45245506E-05
0.31918532E-05
0.22531708E-05
0.15937726E-05
0.11259182E-05
0.80266921E-06
0.57218801E-06
0.40462464E-06
0.28719464E-06
0.20534661E-06
0.14609127E-06
0.10383717E-06
0.73745319E-07
0.52177967E-07
0.37018470E-07
0.26293749E-07
0.18605343E-07
0.13110609E-07
0.91850483E-08
0.64175505E-08
0.44719117E-08
0.31094107E-08
0.21511271E-08
0.14805190E-08
0.10162216E-08
0.69320366E-09
0.46965953E-09
0.31821626E-09
0.21423620E-09
0.14251514E-09
0.94136900E-10
0.61600974E-10
0.40173195E-10
0.25995893E-10
0.16624029E-10
0.10568107E-10
0.66296556E-11
0.41227030E-11
0.25425207E-11
0.15559237E-11
0.95341833E-12
0.59089799E-12
0.37135675E-12
0.24004382E-12
0.16340134E-12
0.11941610E-12
0.95412576E-13
0.83678392E-13
0.80183994E-13
0.82785565E-13
0.90446544E-13
0.10276305E-12
0.11865225E-12
0.13815110E-12
0.16090432E-12
0.18590053E-12
0.21262020E-12
0.24035670E-12
0.26821267E-12
0.29597256E-12
0.32291604E-12
0.34824178E-12
