atomic number =   92
effective nuclear charge =   92
electron count =   10
net charge =   82
basis set = approximate basis set limit (UGBS)      
exchange correlation functional = PW91PW91            
cutoff radius (picometer) =  300
number of shells =   50
prepared by = Thomas A. Manz      
prepared date = July 2010           
net magnetization =    0
density in atomic units:
0.11410160E+06
0.25400889E+01
0.12178307E-02
0.33511580E-04
0.78614075E-05
0.20813748E-05
0.15075174E-05
0.79086266E-06
0.61693989E-07
0.27059400E-06
0.18072015E-06
0.22322476E-07
0.13015248E-07
0.43403173E-07
0.42096080E-07
0.19848866E-07
0.35229155E-08
0.59373911E-09
0.41001282E-08
0.72327371E-08
0.73305855E-08
0.51989075E-08
0.26364002E-08
0.82265578E-09
0.79599403E-10
0.15639637E-09
0.58905869E-09
0.99507513E-09
0.12009532E-08
0.11672818E-08
0.96009212E-09
0.67532141E-09
0.40214770E-09
0.18926817E-09
0.58954869E-10
0.67451543E-11
0.10820797E-10
0.48020001E-10
0.97593343E-10
0.14211803E-09
0.17237251E-09
0.18550179E-09
0.18183201E-09
0.16500266E-09
0.13945871E-09
0.11022205E-09
0.80843054E-10
0.54459798E-10
0.32902733E-10
0.17100280E-10
