atomic number =  101
effective nuclear charge =  101
electron count =   86
net charge =   15
basis set = approximate basis set limit (UGBS)      
exchange correlation functional = PW91PW91            
cutoff radius (picometer) =  400
number of shells =   75
prepared by = Thomas A. Manz      
prepared date = July 2010           
net magnetization =    0
density in atomic units:
0.15725680E+06
0.45207141E+03
0.16847092E+03
0.63488850E+02
0.22298265E+02
0.12127074E+02
0.74891963E+01
0.42317023E+01
0.23061917E+01
0.13418955E+01
0.86996561E+00
0.61761904E+00
0.46223763E+00
0.35563499E+00
0.27469578E+00
0.21073754E+00
0.15980890E+00
0.12018218E+00
0.90149432E-01
0.67395344E-01
0.50217919E-01
0.37232880E-01
0.27430287E-01
0.20208679E-01
0.14887176E-01
0.10956102E-01
0.80657173E-02
0.59529156E-02
0.43605841E-02
0.31953694E-02
0.23656522E-02
0.17501866E-02
0.12853792E-02
0.94241870E-03
0.69723564E-03
0.51629008E-03
0.38071518E-03
0.28209039E-03
0.21025850E-03
0.15623090E-03
0.11579172E-03
0.86408472E-04
0.64598091E-04
0.48260597E-04
0.36145160E-04
0.27080951E-04
0.20313189E-04
0.15227541E-04
0.11379359E-04
0.85120046E-05
0.63659695E-05
0.47670451E-05
0.35570631E-05
0.26530379E-05
0.19840602E-05
0.14782426E-05
0.10968993E-05
0.81452197E-06
0.60529044E-06
0.44876552E-06
0.33189608E-06
0.24580200E-06
0.18178011E-06
0.13404275E-06
0.98647853E-07
0.72502381E-07
0.53365831E-07
0.39153026E-07
0.28640967E-07
0.20978822E-07
0.15394670E-07
0.11218791E-07
0.81551033E-08
0.59358807E-08
0.43203769E-08
