atomic number =   78
effective nuclear charge =   78
electron count =   36
net charge =   42
basis set = approximate basis set limit (UGBS)      
exchange correlation functional = PW91PW91            
cutoff radius (picometer) =  500
number of shells =  100
prepared by = Thomas A. Manz      
prepared date = July 2010           
net magnetization =    0
density in atomic units:
0.49914125E+06
0.50636624E+03
0.90416130E+02
0.21299906E+02
0.10653062E+02
0.49781442E+01
0.19071765E+01
0.60922873E+00
0.18792145E+00
0.56496456E-01
0.16275618E-01
0.49034385E-02
0.14108960E-02
0.37409994E-03
0.10425172E-03
0.29927911E-04
0.82607694E-05
0.24616186E-05
0.79075244E-06
0.25367706E-06
0.84281858E-07
0.30879434E-07
0.14408849E-07
0.97737862E-08
0.76338509E-08
0.54821001E-08
0.32935144E-08
0.15618264E-08
0.50531868E-09
0.14086815E-09
0.25678154E-09
0.59947630E-09
0.95179742E-09
0.11862541E-08
0.12582527E-08
0.11770743E-08
0.98723085E-09
0.74637796E-09
0.50811699E-09
0.30246067E-09
0.15042205E-09
0.57197407E-10
0.16256220E-10
0.16020150E-10
0.41816665E-10
0.81604619E-10
0.12299203E-09
0.15775073E-09
0.18249709E-09
0.19487358E-09
0.19491421E-09
0.18431361E-09
0.16604407E-09
0.14296427E-09
0.11748436E-09
0.91893868E-10
0.67909060E-10
0.47090335E-10
0.30167844E-10
0.17401625E-10
0.85829789E-11
0.33756724E-11
0.12626434E-11
0.15870790E-11
0.37123022E-11
0.69594812E-11
0.10822348E-10
0.14902241E-10
0.18762372E-10
0.22140702E-10
0.24809054E-10
0.26731249E-10
0.27897738E-10
0.28253058E-10
0.27961198E-10
0.27029696E-10
0.25605257E-10
0.23773280E-10
0.21680107E-10
0.19439325E-10
0.17088136E-10
0.14733631E-10
0.12448004E-10
0.10300939E-10
0.83478380E-11
0.66087908E-11
0.50749851E-11
0.37641604E-11
0.26774338E-11
0.17961396E-11
0.11271081E-11
0.63949692E-12
0.31577521E-12
0.14012031E-12
0.86887528E-13
0.13579773E-12
0.26503534E-12
0.45736527E-12
0.69588411E-12
0.96378060E-12
