atomic number =   85
effective nuclear charge =   85
electron count =    4
net charge =   81
basis set = approximate basis set limit (UGBS)      
exchange correlation functional = PW91PW91            
cutoff radius (picometer) =  300
number of shells =   50
prepared by = Thomas A. Manz      
prepared date = July 2010           
net magnetization =    0
density in atomic units:
0.89923289E+05
0.15542554E+01
0.13902475E-02
0.21866115E-04
0.57753455E-05
0.14728894E-05
0.11089704E-05
0.56934533E-06
0.44458208E-07
0.19903497E-06
0.13137914E-06
0.15693301E-07
0.96053636E-08
0.31973695E-07
0.30825163E-07
0.14418108E-07
0.24897755E-08
0.41642051E-09
0.30298366E-08
0.53285620E-08
0.53820797E-08
0.38027061E-08
0.19170820E-08
0.58925487E-09
0.50876338E-10
0.11365611E-09
0.43499943E-09
0.73398837E-09
0.88428781E-09
0.85784313E-09
0.70410627E-09
0.49397592E-09
0.29297267E-09
0.13685078E-09
0.41689738E-10
0.39902556E-11
0.75772843E-11
0.35356214E-10
0.72034635E-10
0.10483322E-09
0.12706347E-09
0.13663701E-09
0.13377140E-09
0.12122210E-09
0.10232801E-09
0.80760822E-10
0.59118641E-10
0.39714926E-10
0.23887559E-10
0.12317986E-10
