atomic number =   85
effective nuclear charge =   85
electron count =   80
net charge =    5
basis set = approximate basis set limit (UGBS)      
exchange correlation functional = PW91PW91            
cutoff radius (picometer) =  500
number of shells =  100
prepared by = Thomas A. Manz      
prepared date = July 2010           
net magnetization =    0
density in atomic units:
0.65436506E+06
0.62819763E+03
0.13110023E+03
0.71761192E+02
0.33423386E+02
0.15019316E+02
0.76448503E+01
0.48271623E+01
0.34994667E+01
0.25437284E+01
0.18010876E+01
0.12699794E+01
0.87430221E+00
0.59451836E+00
0.41536617E+00
0.29368111E+00
0.20668408E+00
0.14853556E+00
0.10830520E+00
0.79332992E-01
0.59238072E-01
0.44978015E-01
0.34184445E-01
0.26113745E-01
0.20132560E-01
0.15544918E-01
0.12022248E-01
0.93595590E-02
0.72689387E-02
0.56633889E-02
0.44309166E-02
0.34561595E-02
0.27046266E-02
0.21207677E-02
0.16628124E-02
0.13006732E-02
0.10162989E-02
0.79449703E-03
0.62323007E-03
0.48782412E-03
0.38171629E-03
0.29874945E-03
0.23339433E-03
0.18338783E-03
0.14395072E-03
0.11228244E-03
0.87799279E-04
0.69005080E-04
0.54044744E-04
0.42333340E-04
0.33163447E-04
0.25945963E-04
0.20375253E-04
0.16039892E-04
0.12623645E-04
0.99305562E-05
0.78049206E-05
0.61406872E-05
0.48388238E-05
0.38216490E-05
0.30188569E-05
0.23855462E-05
0.18895588E-05
0.14965756E-05
0.11856043E-05
0.94309644E-06
0.75048467E-06
0.59586642E-06
0.47329019E-06
0.37576785E-06
0.29922469E-06
0.23837113E-06
0.18969000E-06
0.15116737E-06
0.12019407E-06
0.95505072E-07
0.75888444E-07
0.60217452E-07
0.47782112E-07
0.37952894E-07
0.30046532E-07
0.23729461E-07
0.18703728E-07
0.14722374E-07
0.11594366E-07
0.91231245E-08
0.71542843E-08
0.55980771E-08
0.43668598E-08
0.33868979E-08
0.26240992E-08
0.20224500E-08
0.15484857E-08
0.11830211E-08
0.89676450E-09
0.67526473E-09
0.50559651E-09
0.37432482E-09
0.27420072E-09
0.19893009E-09
