atomic number =   91
effective nuclear charge =   91
electron count =   80
net charge =   11
basis set = approximate basis set limit (UGBS)      
exchange correlation functional = PW91PW91            
cutoff radius (picometer) =  500
number of shells =  100
prepared by = Thomas A. Manz      
prepared date = July 2010           
net magnetization =    0
density in atomic units:
0.80547850E+06
0.68137891E+03
0.15309029E+03
0.78354805E+02
0.29533947E+02
0.13299194E+02
0.79566250E+01
0.54666810E+01
0.37887814E+01
0.24917150E+01
0.15750955E+01
0.10021744E+01
0.62957782E+00
0.39639640E+00
0.26161322E+00
0.17678338E+00
0.11928702E+00
0.82293980E-01
0.57416372E-01
0.39950497E-01
0.28174432E-01
0.20100437E-01
0.14239965E-01
0.10076392E-01
0.71673715E-02
0.50790994E-02
0.35879135E-02
0.25459197E-02
0.17931157E-02
0.12638201E-02
0.89350546E-03
0.62728871E-03
0.44154722E-03
0.31125880E-03
0.21917104E-03
0.15375011E-03
0.10767597E-03
0.75508353E-04
0.53259893E-04
0.37507274E-04
0.26438003E-04
0.18678160E-04
0.13187313E-04
0.94016641E-05
0.67060928E-05
0.47482117E-05
0.33762965E-05
0.24197361E-05
0.17261043E-05
0.12305488E-05
0.87661425E-06
0.62194891E-06
0.44223728E-06
0.31450423E-06
0.22251284E-06
0.15650127E-06
0.10919146E-06
0.75741688E-07
0.52233929E-07
0.35769865E-07
0.24229408E-07
0.16205913E-07
0.10715259E-07
0.69580217E-08
0.44250910E-08
0.27678020E-08
0.16864405E-08
0.98780373E-09
0.55740235E-09
0.30258104E-09
0.16318143E-09
0.93372761E-10
0.64563084E-10
0.58887645E-10
0.64526433E-10
0.74261333E-10
0.83819521E-10
0.91130471E-10
0.95206724E-10
0.95961912E-10
0.93792425E-10
0.89141791E-10
0.82606352E-10
0.74929001E-10
0.66747677E-10
0.58519738E-10
0.50519894E-10
0.43118703E-10
0.36493374E-10
0.30750128E-10
0.26073168E-10
0.22387710E-10
0.19652684E-10
0.17867173E-10
0.16940737E-10
0.16697555E-10
0.17107938E-10
0.18056267E-10
0.19351531E-10
0.20974339E-10
