atomic number =   80
effective nuclear charge =   80
electron count =   48
net charge =   32
basis set = approximate basis set limit (UGBS)      
exchange correlation functional = PW91PW91            
cutoff radius (picometer) =  400
number of shells =   75
prepared by = Thomas A. Manz      
prepared date = July 2010           
net magnetization =    0
density in atomic units:
0.78146609E+05
0.38157971E+03
0.70470497E+02
0.36021461E+02
0.19928555E+02
0.80841179E+01
0.31244051E+01
0.12991343E+01
0.60800135E+00
0.32350138E+00
0.18330097E+00
0.10489765E+00
0.59113111E-01
0.33135351E-01
0.18338576E-01
0.10006145E-01
0.53662430E-02
0.28641676E-02
0.15359125E-02
0.82824001E-03
0.44575354E-03
0.23921310E-03
0.12670983E-03
0.67245404E-04
0.35633955E-04
0.18841205E-04
0.99673834E-05
0.53048839E-05
0.27906042E-05
0.14711198E-05
0.79664142E-06
0.43288173E-06
0.23282438E-06
0.12516607E-06
0.68596904E-07
0.37721168E-07
0.20515976E-07
0.11220557E-07
0.61882339E-08
0.33891556E-08
0.18624180E-08
0.10711632E-08
0.66245570E-09
0.45647247E-09
0.35651390E-09
0.30668440E-09
0.27751976E-09
0.25425170E-09
0.23005962E-09
0.20327699E-09
0.17441268E-09
0.14495391E-09
0.11624140E-09
0.90022136E-10
0.67650878E-10
0.49182779E-10
0.34961794E-10
0.25036169E-10
0.18895146E-10
0.15872454E-10
0.15311828E-10
0.16518353E-10
0.18855154E-10
0.21781046E-10
0.24810416E-10
0.27579172E-10
0.29828185E-10
0.31447893E-10
0.32338753E-10
0.32473222E-10
0.31951199E-10
0.30782130E-10
0.29110946E-10
0.27045028E-10
0.24734294E-10
