atomic number =   86
effective nuclear charge =   86
electron count =   80
net charge =    6
basis set = approximate basis set limit (UGBS)      
exchange correlation functional = PW91PW91            
cutoff radius (picometer) =  300
number of shells =   50
prepared by = Thomas A. Manz      
prepared date = July 2010           
net magnetization =    0
density in atomic units:
0.97858195E+05
0.29323355E+03
0.95336678E+02
0.45523746E+02
0.16809786E+02
0.71678324E+01
0.44256492E+01
0.30501566E+01
0.20149889E+01
0.12930690E+01
0.80458778E+00
0.49672505E+00
0.32042974E+00
0.20813747E+00
0.13854249E+00
0.93656532E-01
0.64168595E-01
0.45447461E-01
0.32312334E-01
0.23157140E-01
0.16717251E-01
0.12111099E-01
0.88262204E-02
0.64444528E-02
0.47020917E-02
0.34295120E-02
0.25060514E-02
0.18462050E-02
0.13522368E-02
0.98814163E-03
0.72455395E-03
0.53003553E-03
0.38880995E-03
0.28446486E-03
0.20795179E-03
0.15266877E-03
0.11229053E-03
0.82416613E-04
0.60182370E-04
0.44096469E-04
0.32420583E-04
0.23704437E-04
0.17391183E-04
0.12788671E-04
0.93896651E-05
0.69172552E-05
0.50905724E-05
0.37499015E-05
0.27668862E-05
0.20488501E-05
