atomic number =   14
effective nuclear charge =   14
electron count =   12
net charge =    2
basis set = approximate basis set limit (UGBS)      
exchange correlation functional = PW91PW91            
cutoff radius (picometer) =  400
number of shells =   75
prepared by = Thomas A. Manz      
prepared date = May 2010            
net magnetization =    0
density in atomic units:
0.37035379E+03
0.33310268E+02
0.13176174E+02
0.88117933E+01
0.55152421E+01
0.31030512E+01
0.17048337E+01
0.91006213E+00
0.48062298E+00
0.26388136E+00
0.15550485E+00
0.10008458E+00
0.70828483E-01
0.55006351E-01
0.45436252E-01
0.38841028E-01
0.33676621E-01
0.29315049E-01
0.25518790E-01
0.22117961E-01
0.19069912E-01
0.16320789E-01
0.13859899E-01
0.11713878E-01
0.98586744E-02
0.82603283E-02
0.68973140E-02
0.57505928E-02
0.47588241E-02
0.39311158E-02
0.32609124E-02
0.26992590E-02
0.22203780E-02
0.18217366E-02
0.15012628E-02
0.12358276E-02
0.10131605E-02
0.83195651E-03
0.68479386E-03
0.56164624E-03
0.45921709E-03
0.37672126E-03
0.30904583E-03
0.25317917E-03
0.20761996E-03
0.17019840E-03
0.13962328E-03
0.11446302E-03
0.93676834E-04
0.76726246E-04
0.62887557E-04
0.51605730E-04
0.42287600E-04
0.34663492E-04
0.28493849E-04
0.23379009E-04
0.19150209E-04
0.15706270E-04
0.12896957E-04
0.10581760E-04
0.86745076E-05
0.71226550E-05
0.58472683E-05
0.47946160E-05
0.39292509E-05
0.32201051E-05
0.26424173E-05
0.21653339E-05
0.17723570E-05
0.14532745E-05
0.11938433E-05
0.97745942E-06
0.79935717E-06
0.65431055E-06
0.53642037E-06
