atomic number =   81
effective nuclear charge =   81
electron count =   48
net charge =   33
basis set = approximate basis set limit (UGBS)      
exchange correlation functional = PW91PW91            
cutoff radius (picometer) =  500
number of shells =  100
prepared by = Thomas A. Manz      
prepared date = July 2010           
net magnetization =    0
density in atomic units:
0.56303200E+06
0.56266534E+03
0.90704361E+02
0.39125740E+02
0.21776943E+02
0.10147732E+02
0.42116103E+01
0.17293940E+01
0.82579470E+00
0.44110578E+00
0.24908754E+00
0.14722697E+00
0.85074678E-01
0.47647838E-01
0.27191253E-01
0.15437090E-01
0.84388759E-02
0.46367990E-02
0.25440813E-02
0.13663081E-02
0.74207975E-03
0.40875046E-03
0.22112958E-03
0.11890125E-03
0.64350737E-04
0.34539105E-04
0.18394283E-04
0.98776636E-05
0.52374030E-05
0.27840845E-05
0.14949292E-05
0.79604013E-06
0.42873839E-06
0.23324496E-06
0.12767640E-06
0.70018650E-07
0.38635083E-07
0.21537241E-07
0.12198201E-07
0.69330230E-08
0.39614969E-08
0.22935323E-08
0.13522347E-08
0.84426843E-09
0.56969390E-09
0.42587708E-09
0.35786896E-09
0.32712261E-09
0.31068542E-09
0.29713124E-09
0.28050701E-09
0.25866931E-09
0.23217465E-09
0.20242590E-09
0.17096216E-09
0.13968224E-09
0.11016865E-09
0.83982203E-10
0.61994382E-10
0.44553247E-10
0.31520765E-10
0.22650042E-10
0.17469073E-10
0.15321279E-10
0.15537769E-10
0.17411220E-10
0.20344051E-10
0.23845769E-10
0.27418966E-10
0.30720631E-10
0.33468919E-10
0.35519788E-10
0.36816192E-10
0.37376054E-10
0.37075763E-10
0.36121234E-10
0.34598512E-10
0.32582735E-10
0.30203007E-10
0.27596562E-10
0.24818361E-10
0.21981758E-10
0.19177302E-10
0.16474091E-10
0.13968669E-10
0.11677724E-10
0.96022669E-11
0.77757219E-11
0.62017661E-11
0.48670169E-11
0.37896747E-11
0.29355314E-11
0.22886855E-11
0.18376201E-11
0.15514001E-11
0.14109210E-11
0.13889337E-11
0.14654730E-11
0.16183062E-11
0.18296155E-11
