atomic number =   90
effective nuclear charge =   90
electron count =   80
net charge =   10
basis set = approximate basis set limit (UGBS)      
exchange correlation functional = PW91PW91            
cutoff radius (picometer) =  500
number of shells =  100
prepared by = Thomas A. Manz      
prepared date = July 2010           
net magnetization =    0
density in atomic units:
0.77916150E+06
0.67320129E+03
0.14891821E+03
0.77793442E+02
0.30255632E+02
0.13489471E+02
0.78725104E+01
0.54003563E+01
0.37977383E+01
0.25438647E+01
0.16368587E+01
0.10567515E+01
0.67169392E+00
0.42655432E+00
0.28294510E+00
0.19174774E+00
0.12961216E+00
0.89531809E-01
0.62549308E-01
0.43595243E-01
0.30806702E-01
0.22028113E-01
0.15645154E-01
0.11100297E-01
0.79167513E-02
0.56250137E-02
0.39839661E-02
0.28339704E-02
0.20009005E-02
0.14136260E-02
0.10017322E-02
0.70485781E-03
0.49724500E-03
0.35128457E-03
0.24788766E-03
0.17426374E-03
0.12230560E-03
0.85946514E-04
0.60744907E-04
0.42865231E-04
0.30271840E-04
0.21426415E-04
0.15154130E-04
0.10821430E-04
0.77311415E-05
0.54824091E-05
0.39033157E-05
0.28009924E-05
0.20000145E-05
0.14272000E-05
0.10175218E-05
0.72245496E-06
0.51400434E-06
0.36571561E-06
0.25886510E-06
0.18211888E-06
0.12706583E-06
0.88127216E-07
0.60730947E-07
0.41559989E-07
0.28128319E-07
0.18795863E-07
0.12411568E-07
0.80481808E-08
0.51102167E-08
0.31909073E-08
0.19404300E-08
0.11371238E-08
0.64370037E-09
0.35444220E-09
0.19725552E-09
0.11986936E-09
0.88934304E-10
0.83617412E-10
0.90575887E-10
0.10127049E-09
0.11129526E-09
0.11810966E-09
0.12089427E-09
0.11968124E-09
0.11495947E-09
0.10739699E-09
0.97881404E-10
0.87228995E-10
0.76221522E-10
0.65408221E-10
0.55170746E-10
0.45828608E-10
0.37673857E-10
0.30774657E-10
0.25305128E-10
0.21149055E-10
0.18249997E-10
0.16568384E-10
0.15958190E-10
0.16221602E-10
0.17253976E-10
0.18932888E-10
0.21028223E-10
0.23464664E-10
