atomic number =   78
effective nuclear charge =   78
electron count =   36
net charge =   42
basis set = approximate basis set limit (UGBS)      
exchange correlation functional = PW91PW91            
cutoff radius (picometer) =  300
number of shells =   50
prepared by = Thomas A. Manz      
prepared date = July 2010           
net magnetization =    0
density in atomic units:
0.72005367E+05
0.24141064E+03
0.36482372E+02
0.13684713E+02
0.57187257E+01
0.16793765E+01
0.41895863E+00
0.10559572E+00
0.24668928E-01
0.57359920E-02
0.12595933E-02
0.25170163E-03
0.55057320E-04
0.11924734E-04
0.27720732E-05
0.70469491E-06
0.18032506E-06
0.51063221E-07
0.17513440E-07
0.10075245E-07
0.74025550E-08
0.47909241E-08
0.23631228E-08
0.76409251E-09
0.16313134E-09
0.29112335E-09
0.71357659E-09
0.10835994E-08
0.12507474E-08
0.11874026E-08
0.96350450E-09
0.67221595E-09
0.39921458E-09
0.18988214E-09
0.63884974E-10
0.15389330E-10
0.22051444E-10
0.60661212E-10
0.11058714E-09
0.15466002E-09
0.18396060E-09
0.19586754E-09
0.19066881E-09
0.17234143E-09
0.14534729E-09
0.11484932E-09
0.84367124E-10
0.57054885E-10
0.34796881E-10
0.18501206E-10
