atomic number =   79
effective nuclear charge =   79
electron count =   78
net charge =    1
basis set = approximate basis set limit (UGBS)      
exchange correlation functional = PW91PW91            
cutoff radius (picometer) =  400
number of shells =   75
prepared by = Thomas A. Manz      
prepared date = July 2010           
net magnetization =    0
density in atomic units:
0.75133680E+05
0.40120154E+03
0.97326447E+02
0.56132504E+02
0.31507065E+02
0.13947863E+02
0.65374556E+01
0.37016213E+01
0.24715970E+01
0.17940065E+01
0.13309865E+01
0.98246557E+00
0.71844620E+00
0.52586061E+00
0.38502413E+00
0.28228363E+00
0.20736733E+00
0.15357205E+00
0.11525950E+00
0.87464795E-01
0.66954479E-01
0.51535085E-01
0.39779481E-01
0.30917266E-01
0.24167029E-01
0.18970115E-01
0.14959857E-01
0.11866041E-01
0.93903746E-02
0.74578901E-02
0.59831860E-02
0.48080739E-02
0.38504757E-02
0.30853744E-02
0.24920299E-02
0.20159485E-02
0.16278118E-02
0.13200244E-02
0.10760070E-02
0.87584904E-03
0.71234099E-03
0.58258697E-03
0.47740093E-03
0.39134323E-03
0.32161636E-03
0.26459742E-03
0.21807718E-03
0.17980138E-03
0.14811907E-03
0.12220509E-03
0.10096755E-03
0.83566214E-04
0.69108421E-04
0.57209389E-04
0.47516976E-04
0.39417035E-04
0.32675485E-04
0.27135353E-04
0.22579237E-04
0.18786559E-04
0.15631435E-04
0.13034925E-04
0.10876275E-04
0.90716203E-05
0.75676307E-05
0.63158882E-05
0.52808246E-05
0.44118351E-05
0.36832037E-05
0.30809722E-05
0.25819118E-05
0.21577889E-05
0.18017530E-05
0.15057506E-05
0.12603346E-05
