atomic number =   98
effective nuclear charge =   98
electron count =   62
net charge =   36
basis set = approximate basis set limit (UGBS)      
exchange correlation functional = PW91PW91            
cutoff radius (picometer) =  300
number of shells =   50
prepared by = Thomas A. Manz      
prepared date = July 2010           
net magnetization =    0
density in atomic units:
0.14424772E+06
0.32022934E+03
0.11456387E+03
0.36626266E+02
0.93039980E+01
0.23273687E+01
0.69216728E+00
0.23339923E+00
0.74142195E-01
0.23043465E-01
0.68508442E-02
0.19657006E-02
0.62145782E-03
0.19255323E-03
0.58948528E-04
0.17148826E-04
0.43615596E-05
0.10194153E-05
0.17966148E-06
0.27261802E-07
0.13371585E-07
0.11669281E-07
0.69308075E-08
0.30211569E-08
0.23418132E-08
0.42426831E-08
0.68257116E-08
0.85596952E-08
0.88952028E-08
0.79027576E-08
0.61172445E-08
0.41104746E-08
0.23710680E-08
0.11198508E-08
0.42642398E-09
0.21457199E-09
0.32467404E-09
0.60474575E-09
0.92679775E-09
0.11888963E-08
0.13437024E-08
0.13825825E-08
0.13121960E-08
0.11639120E-08
0.96706376E-09
0.75502693E-09
0.54967475E-09
0.37034484E-09
0.22726696E-09
0.12521902E-09
