atomic number =   91
effective nuclear charge =   91
electron count =    2
net charge =   89
basis set = approximate basis set limit (UGBS)      
exchange correlation functional = PW91PW91            
cutoff radius (picometer) =  300
number of shells =   50
prepared by = Thomas A. Manz      
prepared date = July 2010           
net magnetization =    0
density in atomic units:
0.95467773E+05
0.70352724E-03
0.60820646E-04
0.19576084E-04
0.42908191E-05
0.11856798E-05
0.81563297E-06
0.43874408E-06
0.32276102E-07
0.14620994E-06
0.98644641E-07
0.12158697E-07
0.68173773E-08
0.23380545E-07
0.22777687E-07
0.10745259E-07
0.18885655E-08
0.29401706E-09
0.21940916E-08
0.38951153E-08
0.39523114E-08
0.28019904E-08
0.14179277E-08
0.43889217E-09
0.38684136E-10
0.81314004E-10
0.31575473E-09
0.53534766E-09
0.64661593E-09
0.62832883E-09
0.51640725E-09
0.36273398E-09
0.21548047E-09
0.10089792E-09
0.30896171E-10
0.30086866E-11
0.54236038E-11
0.25635884E-10
0.52447050E-10
0.76470316E-10
0.92795452E-10
0.99870640E-10
0.97823513E-10
0.88705827E-10
0.74914408E-10
0.59147368E-10
0.43324334E-10
0.29121979E-10
0.17532505E-10
0.90519692E-11
