atomic number =   78
effective nuclear charge =   78
electron count =   10
net charge =   68
basis set = approximate basis set limit (UGBS)      
exchange correlation functional = PW91PW91            
cutoff radius (picometer) =  300
number of shells =   50
prepared by = Thomas A. Manz      
prepared date = July 2010           
net magnetization =    0
density in atomic units:
0.69144938E+05
0.93210001E+01
0.16133951E-01
0.25621464E-04
0.40666182E-05
0.10096270E-05
0.75669288E-06
0.38986656E-06
0.32013546E-07
0.13583269E-06
0.90113645E-07
0.11211175E-07
0.66888575E-08
0.21824727E-07
0.21110296E-07
0.99610817E-08
0.17880255E-08
0.31927885E-09
0.20712279E-08
0.36375394E-08
0.36847223E-08
0.26154661E-08
0.13295330E-08
0.41823775E-09
0.43748959E-10
0.80856800E-10
0.29712408E-09
0.50060311E-09
0.60410899E-09
0.58740640E-09
0.48355908E-09
0.34059158E-09
0.20328954E-09
0.96147645E-10
0.30419871E-10
0.39278667E-11
0.57619738E-11
0.24304017E-10
0.49121218E-10
0.71464314E-10
0.86705136E-10
0.93361346E-10
0.91568676E-10
0.83135651E-10
0.70321950E-10
0.55631288E-10
0.40869245E-10
0.27577393E-10
0.16711025E-10
0.87364950E-11
