atomic number =   98
effective nuclear charge =   98
electron count =   86
net charge =   12
basis set = approximate basis set limit (UGBS)      
exchange correlation functional = PW91PW91            
cutoff radius (picometer) =  400
number of shells =   75
prepared by = Thomas A. Manz      
prepared date = July 2010           
net magnetization =    0
density in atomic units:
0.14434725E+06
0.44752582E+03
0.15968530E+03
0.66642822E+02
0.23085693E+02
0.11793900E+02
0.75259595E+01
0.45014296E+01
0.25480494E+01
0.14870925E+01
0.94551820E+00
0.65742511E+00
0.48719043E+00
0.37548342E+00
0.29256895E+00
0.22711867E+00
0.17440625E+00
0.13270846E+00
0.10056713E+00
0.75832926E-01
0.56909036E-01
0.42440221E-01
0.31414323E-01
0.23227606E-01
0.17155986E-01
0.12648049E-01
0.93197124E-02
0.68796943E-02
0.50371513E-02
0.36872630E-02
0.27257623E-02
0.20126021E-02
0.14746052E-02
0.10781770E-02
0.79540326E-03
0.58718183E-03
0.43158920E-03
0.31872166E-03
0.23677561E-03
0.17534387E-03
0.12950899E-03
0.96316042E-04
0.71761831E-04
0.53426640E-04
0.39877064E-04
0.29773470E-04
0.22253211E-04
0.16620932E-04
0.12374082E-04
0.92173059E-05
0.68657373E-05
0.51170846E-05
0.38013181E-05
0.28196653E-05
0.20981113E-05
0.15537469E-05
0.11458185E-05
0.84488300E-06
0.62298477E-06
0.45807604E-06
0.33577689E-06
0.24632359E-06
0.18028551E-06
0.13142345E-06
0.95513904E-07
0.69249715E-07
0.50228607E-07
0.36285204E-07
0.26076025E-07
0.18739238E-07
0.13483287E-07
0.96306758E-08
0.68564381E-08
0.48765432E-08
0.34771974E-08
