atomic number =    9
effective nuclear charge =    9
electron count =    4
net charge =    5
basis set = approximate basis set limit (UGBS)      
exchange correlation functional = PW91PW91            
cutoff radius (picometer) =  500
number of shells =  100
prepared by = Thomas A. Manz      
prepared date = July 2010           
net magnetization =    0
density in atomic units:
0.46855670E+03
0.40269188E+02
0.69984241E+01
0.15128731E+01
0.62701470E+00
0.48067996E+00
0.40471750E+00
0.32760164E+00
0.25646079E+00
0.19341114E+00
0.14234430E+00
0.10473409E+00
0.75394049E-01
0.53397994E-01
0.38407654E-01
0.27624510E-01
0.19525500E-01
0.13891656E-01
0.98855952E-02
0.69651720E-02
0.49479380E-02
0.35458263E-02
0.25216558E-02
0.17924762E-02
0.12828843E-02
0.91694476E-03
0.65517536E-03
0.47150950E-03
0.33789180E-03
0.24298171E-03
0.17568156E-03
0.12649383E-03
0.91495138E-04
0.66390974E-04
0.48200374E-04
0.34918572E-04
0.25284147E-04
0.18341996E-04
0.13381912E-04
0.97494376E-05
0.71076884E-05
0.51905090E-05
0.37860468E-05
0.27844790E-05
0.20472930E-05
0.14941206E-05
0.10939989E-05
0.80642445E-06
0.59169088E-06
0.43385899E-06
0.31799638E-06
0.23237176E-06
0.17034971E-06
0.12509662E-06
0.91634888E-07
0.66951834E-07
0.48729735E-07
0.35430102E-07
0.25746523E-07
0.18709159E-07
0.13560820E-07
0.98073532E-08
0.70926620E-08
0.51146198E-08
0.36777930E-08
0.26517482E-08
0.19079374E-08
0.13636366E-08
0.97271013E-09
0.69127554E-09
0.49215193E-09
0.34992534E-09
0.24790991E-09
0.17587615E-09
0.12435841E-09
0.87985876E-10
0.62491387E-10
0.44568675E-10
0.32108545E-10
0.23489344E-10
0.17406576E-10
0.13165434E-10
0.10182613E-10
0.80835269E-11
0.65931379E-11
0.55049108E-11
0.46702915E-11
0.40470296E-11
0.35313206E-11
0.31043308E-11
0.27541641E-11
0.24593465E-11
0.21970693E-11
0.19753023E-11
0.17926680E-11
0.16358588E-11
0.15110321E-11
0.14113146E-11
0.13354108E-11
0.12808874E-11
