atomic number =   78
effective nuclear charge =   78
electron count =   12
net charge =   66
basis set = approximate basis set limit (UGBS)      
exchange correlation functional = PW91PW91            
cutoff radius (picometer) =  400
number of shells =   75
prepared by = Thomas A. Manz      
prepared date = July 2010           
net magnetization =    0
density in atomic units:
0.71117992E+05
0.53325180E+02
0.82232962E+01
0.71244162E+00
0.44306159E-01
0.19566624E-02
0.76859396E-04
0.58157671E-05
0.83177116E-06
0.44682508E-07
0.16006449E-06
0.15227562E-06
0.44305764E-07
0.28558922E-08
0.17313555E-07
0.31223365E-07
0.25877759E-07
0.12106947E-07
0.26116249E-08
0.27271826E-09
0.20115873E-08
0.42928998E-08
0.51839111E-08
0.44941064E-08
0.30024956E-08
0.15090225E-08
0.49404664E-09
0.60548073E-10
0.73525720E-10
0.31659964E-09
0.58445465E-09
0.76846890E-09
0.82508034E-09
0.75991291E-09
0.61896899E-09
0.44662862E-09
0.27943298E-09
0.14708985E-09
0.59346660E-10
0.13149247E-10
0.23612757E-11
0.16025278E-10
0.42513142E-10
0.72424303E-10
0.98506120E-10
0.11685965E-09
0.12582468E-09
0.12561409E-09
0.11762784E-09
0.10397532E-09
0.87089155E-10
0.69120799E-10
0.51597546E-10
0.35956172E-10
0.23138970E-10
0.13186656E-10
0.62118088E-11
0.20791253E-11
0.33442406E-12
0.45980082E-12
0.19465616E-11
0.42782245E-11
0.70358307E-11
0.98773420E-11
0.12506862E-10
0.14723361E-10
0.16396554E-10
0.17506104E-10
0.18023989E-10
0.18006038E-10
0.17529717E-10
0.16633618E-10
0.15420200E-10
0.13991185E-10
0.12440860E-10
