atomic number =   91
effective nuclear charge =   91
electron count =   86
net charge =    5
basis set = approximate basis set limit (UGBS)      
exchange correlation functional = PW91PW91            
cutoff radius (picometer) =  400
number of shells =   75
prepared by = Thomas A. Manz      
prepared date = July 2010           
net magnetization =    0
density in atomic units:
0.11614890E+06
0.43928107E+03
0.13468980E+03
0.70405891E+02
0.26554911E+02
0.11331466E+02
0.70585265E+01
0.47445545E+01
0.30309587E+01
0.18808764E+01
0.11912116E+01
0.79264534E+00
0.56084615E+00
0.42233491E+00
0.33008358E+00
0.26229849E+00
0.20884410E+00
0.16581509E+00
0.13133819E+00
0.10346423E+00
0.81028342E-01
0.62954366E-01
0.48487358E-01
0.37210159E-01
0.28465314E-01
0.21691147E-01
0.16486004E-01
0.12527480E-01
0.94311284E-02
0.70890100E-02
0.53695343E-02
0.40584826E-02
0.30433773E-02
0.22764020E-02
0.17159042E-02
0.12935372E-02
0.97079907E-03
0.73142751E-03
0.55390300E-03
0.41799710E-03
0.31449468E-03
0.23803487E-03
0.18035926E-03
0.13649688E-03
0.10349610E-03
0.78460573E-04
0.59524104E-04
0.45113946E-04
0.34083543E-04
0.25764723E-04
0.19474894E-04
0.14734831E-04
0.11112817E-04
0.83765590E-05
0.63339712E-05
0.47701506E-05
0.35832986E-05
0.26913699E-05
0.20257989E-05
0.15198768E-05
0.11388995E-05
0.85386461E-06
0.63955878E-06
0.47790365E-06
0.35645402E-06
0.26553607E-06
0.19794255E-06
0.14699874E-06
0.10876392E-06
0.80506240E-07
0.59623211E-07
0.43820084E-07
0.32054484E-07
0.23417787E-07
0.17103670E-07
