atomic number =   78
effective nuclear charge =   78
electron count =   30
net charge =   48
basis set = approximate basis set limit (UGBS)      
exchange correlation functional = PW91PW91            
cutoff radius (picometer) =  400
number of shells =   75
prepared by = Thomas A. Manz      
prepared date = July 2010           
net magnetization =    0
density in atomic units:
0.71989359E+05
0.34511911E+03
0.60217392E+02
0.94932642E+01
0.28130364E+01
0.89338642E+00
0.25806847E+00
0.67136809E-01
0.15651908E-01
0.36920586E-02
0.87409781E-03
0.20473090E-03
0.44392778E-04
0.92252703E-05
0.18077271E-05
0.36093957E-06
0.86214961E-07
0.26561510E-07
0.87546406E-08
0.47839332E-08
0.61005569E-08
0.79234228E-08
0.80395157E-08
0.63954912E-08
0.40257007E-08
0.19083384E-08
0.57876653E-09
0.84989772E-10
0.19163067E-09
0.57695293E-09
0.95816866E-09
0.11972838E-08
0.12451733E-08
0.11205050E-08
0.89557517E-09
0.63443484E-09
0.38863920E-09
0.19901562E-09
0.77061593E-10
0.16522964E-10
0.70549109E-11
0.31730295E-10
0.73442794E-10
0.11855963E-09
0.15671967E-09
0.18261014E-09
0.19418492E-09
0.19194941E-09
0.17828831E-09
0.15651633E-09
0.13026211E-09
0.10274179E-09
0.76168481E-10
0.52672717E-10
0.33573175E-10
0.18890592E-10
0.87405604E-11
0.28716337E-11
0.57269966E-12
0.10486923E-11
0.35225093E-11
0.72098967E-11
0.11487962E-10
0.15837612E-10
0.19826816E-10
0.23155908E-10
0.25641888E-10
0.27249689E-10
0.27942912E-10
0.27835357E-10
0.27028676E-10
0.25582049E-10
0.23673254E-10
0.21436375E-10
0.19036784E-10
