atomic number =  100
effective nuclear charge =  100
electron count =   86
net charge =   14
basis set = approximate basis set limit (UGBS)      
exchange correlation functional = PW91PW91            
cutoff radius (picometer) =  500
number of shells =  100
prepared by = Thomas A. Manz      
prepared date = July 2010           
net magnetization =    0
density in atomic units:
0.10611142E+07
0.74708490E+03
0.19552946E+03
0.75648895E+02
0.24594698E+02
0.13751550E+02
0.90216722E+01
0.54775920E+01
0.32138879E+01
0.18912070E+01
0.11753113E+01
0.80919981E+00
0.59141016E+00
0.44917923E+00
0.35348320E+00
0.27961087E+00
0.21791938E+00
0.16964592E+00
0.13113083E+00
0.99911064E-01
0.76127760E-01
0.58088142E-01
0.43839928E-01
0.32938398E-01
0.24807036E-01
0.18609094E-01
0.13924694E-01
0.10463923E-01
0.78217480E-02
0.58566835E-02
0.44005699E-02
0.32908465E-02
0.24684966E-02
0.18552484E-02
0.13940098E-02
0.10447262E-02
0.78227895E-03
0.58655289E-03
0.44196943E-03
0.33260311E-03
0.25051381E-03
0.18901685E-03
0.14253345E-03
0.10833487E-03
0.82362261E-04
0.62244530E-04
0.47211179E-04
0.36043341E-04
0.27417567E-04
0.20859447E-04
0.15868347E-04
0.12047448E-04
0.91733764E-05
0.69990892E-05
0.53283384E-05
0.40492259E-05
0.30666938E-05
0.23214222E-05
0.17562525E-05
0.13289421E-05
0.10032603E-05
0.75603759E-06
0.56990831E-06
0.42866284E-06
0.32172554E-06
0.24212994E-06
0.18193721E-06
0.13596576E-06
0.10146400E-06
0.75502882E-07
0.56316928E-07
0.41972573E-07
0.31188321E-07
0.23176645E-07
0.17156550E-07
0.12678274E-07
0.93608739E-08
0.69052453E-08
0.50952744E-08
0.37610213E-08
0.27749829E-08
0.20462578E-08
0.15055217E-08
0.11077732E-08
0.82158935E-09
0.60870559E-09
0.45137249E-09
0.33637321E-09
0.25034755E-09
0.18734177E-09
0.14105393E-09
0.10770988E-09
0.83855804E-10
0.67587276E-10
0.56854934E-10
0.50460001E-10
0.47558249E-10
0.47503008E-10
0.49554492E-10
0.53338781E-10
