atomic number =   85
effective nuclear charge =   85
electron count =    2
net charge =   83
basis set = approximate basis set limit (UGBS)      
exchange correlation functional = PW91PW91            
cutoff radius (picometer) =  300
number of shells =   50
prepared by = Thomas A. Manz      
prepared date = July 2010           
net magnetization =    0
density in atomic units:
0.78130234E+05
0.49228675E-03
0.47318052E-04
0.15260530E-04
0.33682893E-05
0.92389973E-06
0.64117575E-06
0.34339575E-06
0.25386939E-07
0.11493949E-06
0.77392677E-07
0.95120258E-08
0.53750346E-08
0.18385821E-07
0.17895509E-07
0.84356735E-08
0.14803458E-08
0.23187689E-09
0.17267781E-08
0.30629912E-08
0.31066958E-08
0.22018265E-08
0.11139089E-08
0.34456565E-09
0.30317089E-10
0.64054054E-10
0.24845442E-09
0.42104750E-09
0.50849785E-09
0.49400639E-09
0.40597661E-09
0.28514385E-09
0.16935889E-09
0.79296632E-10
0.24270001E-10
0.23598944E-11
0.42727501E-11
0.20174461E-10
0.41254330E-10
0.60148726E-10
0.72982891E-10
0.78536427E-10
0.76927222E-10
0.69745619E-10
0.58900350E-10
0.46506170E-10
0.34059377E-10
0.22897016E-10
0.13782355E-10
0.71153018E-11
