atomic number =  106
effective nuclear charge =  106
electron count =   68
net charge =   38
basis set = approximate basis set limit (UGBS)      
exchange correlation functional = PW91PW91            
cutoff radius (picometer) =  500
number of shells =  100
prepared by = Thomas A. Manz      
prepared date = July 2010           
net magnetization =    0
density in atomic units:
0.12472592E+07
0.77742914E+03
0.21004890E+03
0.68142624E+02
0.19711424E+02
0.91278753E+01
0.44978738E+01
0.19689972E+01
0.81752753E+00
0.32021657E+00
0.11794387E+00
0.43900117E-01
0.15487746E-01
0.51530241E-02
0.18193562E-02
0.66362350E-03
0.23347595E-03
0.84640713E-04
0.30900061E-04
0.10637398E-04
0.35660698E-05
0.11648566E-05
0.35488804E-06
0.11784436E-06
0.55266185E-07
0.34822744E-07
0.22393742E-07
0.12488221E-07
0.54848446E-08
0.21524580E-08
0.18569520E-08
0.33416285E-08
0.53425158E-08
0.69573280E-08
0.77497981E-08
0.76376310E-08
0.67838504E-08
0.54857310E-08
0.40670245E-08
0.27333527E-08
0.16528123E-08
0.89544250E-09
0.45521445E-09
0.29128158E-09
0.32287387E-09
0.48029403E-09
0.68960399E-09
0.89284224E-09
0.10597285E-08
0.11663228E-08
0.12051605E-08
0.11793856E-08
0.11014893E-08
0.98573916E-09
0.84646212E-09
0.69693351E-09
0.54902727E-09
0.41346135E-09
0.29673813E-09
0.20219755E-09
0.13027550E-09
0.80419650E-10
0.50640749E-10
0.37692419E-10
0.38179234E-10
0.48361072E-10
0.64966671E-10
0.85286507E-10
0.10653589E-09
0.12679746E-09
0.14432452E-09
0.15821774E-09
0.16830358E-09
0.17392331E-09
0.17539536E-09
0.17271397E-09
0.16709872E-09
0.15833752E-09
0.14757430E-09
0.13533631E-09
0.12190256E-09
0.10797942E-09
0.93993514E-10
0.80471414E-10
0.67755329E-10
0.56094678E-10
0.45472615E-10
0.36098034E-10
0.27996125E-10
0.21104021E-10
0.15536595E-10
0.11144512E-10
0.78166987E-11
0.55101908E-11
0.40713747E-11
0.33903000E-11
0.33398507E-11
0.38042056E-11
0.46798234E-11
0.58534076E-11
