atomic number =   78
effective nuclear charge =   78
electron count =   46
net charge =   32
basis set = approximate basis set limit (UGBS)      
exchange correlation functional = PW91PW91            
cutoff radius (picometer) =  500
number of shells =  100
prepared by = Thomas A. Manz      
prepared date = July 2010           
net magnetization =    0
density in atomic units:
0.49914128E+06
0.53655597E+03
0.94412018E+02
0.35182068E+02
0.21642866E+02
0.11093867E+02
0.47311606E+01
0.17418673E+01
0.63153869E+00
0.22510648E+00
0.78341909E-01
0.28665829E-01
0.10187009E-01
0.34441615E-02
0.12317073E-02
0.45378460E-03
0.16223399E-03
0.60713905E-04
0.23424180E-04
0.88057595E-05
0.33342023E-05
0.12657033E-05
0.45234728E-06
0.15527847E-06
0.53026291E-07
0.17953235E-07
0.60431478E-08
0.19740591E-08
0.52344751E-09
0.16519203E-09
0.29810437E-09
0.62608385E-09
0.95809993E-09
0.11882496E-08
0.12769726E-08
0.12279376E-08
0.10751794E-08
0.86629215E-09
0.64814348E-09
0.44892864E-09
0.29044869E-09
0.18067493E-09
0.11707910E-09
0.92697121E-10
0.95340964E-10
0.11484277E-09
0.14085004E-09
0.16544202E-09
0.18447818E-09
0.19500873E-09
0.19607978E-09
0.18844616E-09
0.17398112E-09
0.15478401E-09
0.13279822E-09
0.10989269E-09
0.87636773E-10
0.67495155E-10
0.50297135E-10
0.36444899E-10
0.25929037E-10
0.18610224E-10
0.14173082E-10
0.12126152E-10
0.11966741E-10
0.13160767E-10
0.15239488E-10
0.17823670E-10
0.20518129E-10
0.23052310E-10
0.25176616E-10
0.26812016E-10
0.27905390E-10
0.28344051E-10
0.28280722E-10
0.27651643E-10
0.26572255E-10
0.25098026E-10
0.23345968E-10
0.21401322E-10
0.19320306E-10
0.17178311E-10
0.15043083E-10
0.12984702E-10
0.11056892E-10
0.92853693E-11
0.76783241E-11
0.62602193E-11
0.50265530E-11
0.39732857E-11
0.31174941E-11
0.24320353E-11
0.19045117E-11
0.15289640E-11
0.12816268E-11
0.11470226E-11
0.11064581E-11
0.11426549E-11
0.12413851E-11
0.13873940E-11
