atomic number =   78
effective nuclear charge =   78
electron count =   18
net charge =   60
basis set = approximate basis set limit (UGBS)      
exchange correlation functional = PW91PW91            
cutoff radius (picometer) =  400
number of shells =   75
prepared by = Thomas A. Manz      
prepared date = July 2010           
net magnetization =    0
density in atomic units:
0.71161273E+05
0.15985301E+03
0.31483835E+02
0.29977570E+01
0.20948119E+00
0.11223752E-01
0.53967192E-03
0.27802358E-04
0.17514592E-05
0.12038643E-06
0.17339788E-06
0.15591262E-06
0.45132033E-07
0.29175424E-08
0.17399735E-07
0.31484220E-07
0.26182356E-07
0.12323465E-07
0.27114901E-08
0.29691280E-09
0.20128654E-08
0.43051576E-08
0.52155062E-08
0.45372834E-08
0.30452394E-08
0.15425383E-08
0.51529825E-09
0.71042970E-10
0.76865334E-10
0.31692501E-09
0.58485655E-09
0.77057261E-09
0.82930585E-09
0.76575463E-09
0.62554273E-09
0.45306647E-09
0.28505090E-09
0.15151395E-09
0.62497743E-10
0.15126045E-10
0.34019660E-11
0.16448677E-10
0.42605225E-10
0.72426863E-10
0.98573941E-10
0.11710585E-09
0.12630436E-09
0.12627935E-09
0.11845966E-09
0.10490242E-09
0.88050817E-10
0.70062449E-10
0.52469869E-10
0.36723961E-10
0.23787248E-10
0.13705365E-10
0.66071380E-11
0.23628504E-11
0.52409184E-12
0.57472923E-12
0.20065080E-11
0.43022738E-11
0.70393530E-11
0.98775597E-11
0.12509068E-10
0.14734141E-10
0.16425644E-10
0.17556814E-10
0.18104638E-10
0.18101461E-10
0.17635704E-10
0.16747444E-10
0.15547024E-10
0.14121667E-10
0.12572453E-10
