atomic number =   95
effective nuclear charge =   95
electron count =   86
net charge =    9
basis set = approximate basis set limit (UGBS)      
exchange correlation functional = PW91PW91            
cutoff radius (picometer) =  400
number of shells =   75
prepared by = Thomas A. Manz      
prepared date = July 2010           
net magnetization =    0
density in atomic units:
0.13191311E+06
0.44402106E+03
0.14945580E+03
0.69057297E+02
0.24312799E+02
0.11472898E+02
0.73989115E+01
0.46840310E+01
0.27812784E+01
0.16479633E+01
0.10330023E+01
0.69981164E+00
0.50861204E+00
0.38998696E+00
0.30598769E+00
0.24105765E+00
0.18866156E+00
0.14656742E+00
0.11340548E+00
0.87266982E-01
0.66792995E-01
0.50768942E-01
0.38285792E-01
0.28813636E-01
0.21645740E-01
0.16219733E-01
0.12138880E-01
0.90942467E-02
0.67565381E-02
0.50166040E-02
0.37584316E-02
0.28121006E-02
0.20880676E-02
0.15472564E-02
0.11562803E-02
0.86459512E-03
0.64378063E-03
0.48152116E-03
0.36218978E-03
0.27158772E-03
0.20310603E-03
0.15289288E-03
0.11525812E-03
0.86826229E-04
0.65552689E-04
0.49500821E-04
0.37420647E-04
0.28261251E-04
0.21285718E-04
0.16038086E-04
0.12087173E-04
0.91187721E-05
0.68555737E-05
0.51526808E-05
0.38825706E-05
0.29151270E-05
0.21811029E-05
0.16323316E-05
0.12228601E-05
0.91317753E-06
0.68064384E-06
0.50781489E-06
0.37839015E-06
0.28102522E-06
0.20823897E-06
0.15396114E-06
0.11386989E-06
0.83822393E-07
0.61454962E-07
0.45070763E-07
0.33079051E-07
0.24079478E-07
0.17442126E-07
0.12620724E-07
0.91150625E-08
