atomic number =   85
effective nuclear charge =   85
electron count =   46
net charge =   39
basis set = approximate basis set limit (UGBS)      
exchange correlation functional = PW91PW91            
cutoff radius (picometer) =  300
number of shells =   50
prepared by = Thomas A. Manz      
prepared date = July 2010           
net magnetization =    0
density in atomic units:
0.94185570E+05
0.24939503E+03
0.54779118E+02
0.28201408E+02
0.99828653E+01
0.25038958E+01
0.56562352E+00
0.13401555E+00
0.29717715E-01
0.67492379E-02
0.15045956E-02
0.31079858E-03
0.68992260E-04
0.14723709E-04
0.33293015E-05
0.84450147E-06
0.22636718E-06
0.70658146E-07
0.27974792E-07
0.17507116E-07
0.13149339E-07
0.87855687E-08
0.46736335E-08
0.18315370E-08
0.58839073E-09
0.58213023E-09
0.11474737E-08
0.17165729E-08
0.20142943E-08
0.19628923E-08
0.16470348E-08
0.12034627E-08
0.76694173E-09
0.41470211E-09
0.18623098E-09
0.80015120E-10
0.65579008E-10
0.10852118E-09
0.17680060E-09
0.24260818E-09
0.28988717E-09
0.31253969E-09
0.30945160E-09
0.28516739E-09
0.24622074E-09
0.20019920E-09
0.15262198E-09
0.10869115E-09
0.71680620E-10
0.43427748E-10
