atomic number =   74
effective nuclear charge =   74
electron count =   12
net charge =   62
basis set = approximate basis set limit (UGBS)      
exchange correlation functional = PW91PW91            
cutoff radius (picometer) =  500
number of shells =  100
prepared by = Thomas A. Manz      
prepared date = July 2010           
net magnetization =    0
density in atomic units:
0.41922431E+06
0.14201247E+03
0.13948503E+02
0.15467007E+01
0.10736720E+00
0.93177175E-02
0.71440398E-03
0.49218841E-04
0.55842811E-05
0.58503963E-06
0.57738632E-07
0.17168644E-06
0.12626076E-06
0.29425584E-07
0.24594200E-08
0.17934653E-07
0.31176878E-07
0.27096242E-07
0.14505917E-07
0.40894435E-08
0.31206440E-09
0.11875787E-08
0.35072714E-08
0.50243121E-08
0.50395306E-08
0.39398396E-08
0.24402187E-08
0.11582656E-08
0.34254169E-09
0.35743637E-10
0.92809399E-10
0.32925407E-09
0.58548832E-09
0.76493140E-09
0.83177831E-09
0.78965645E-09
0.66860262E-09
0.50845222E-09
0.34704456E-09
0.20607778E-09
0.10078099E-09
0.35405609E-10
0.58763675E-11
0.45203385E-11
0.21345575E-10
0.48109846E-10
0.76322698E-10
0.10028171E-09
0.11761751E-09
0.12661407E-09
0.12732826E-09
0.12083731E-09
0.10908215E-09
0.94019133E-10
0.77258477E-10
0.60376641E-10
0.44514479E-10
0.30721949E-10
0.19502349E-10
0.11029498E-10
0.51788552E-11
0.17236088E-11
0.32248569E-12
0.53914680E-12
0.19508698E-11
0.41065823E-11
0.66705053E-11
0.93788232E-11
0.11938473E-10
0.14179365E-10
0.15961106E-10
0.17240830E-10
0.18005155E-10
0.18304804E-10
0.18090278E-10
0.17490636E-10
0.16565990E-10
0.15378566E-10
0.14007832E-10
0.12541528E-10
0.11011109E-10
0.94802681E-11
0.79963076E-11
0.66028858E-11
0.53339303E-11
0.42056454E-11
0.32128078E-11
0.23667225E-11
0.16655981E-11
0.10993178E-11
0.67053508E-12
0.36007802E-12
0.15593067E-12
0.47568584E-13
0.18356148E-13
0.54927813E-13
0.14311770E-12
0.27182941E-12
0.42976457E-12
0.60593170E-12
