atomic number =   92
effective nuclear charge =   92
electron count =   86
net charge =    6
basis set = approximate basis set limit (UGBS)      
exchange correlation functional = PW91PW91            
cutoff radius (picometer) =  300
number of shells =   50
prepared by = Thomas A. Manz      
prepared date = July 2010           
net magnetization =    0
density in atomic units:
0.11999756E+06
0.31058603E+03
0.11180589E+03
0.42602802E+02
0.15123734E+02
0.79047594E+01
0.49792256E+01
0.30576704E+01
0.17836251E+01
0.10716941E+01
0.68349445E+00
0.47229180E+00
0.35492730E+00
0.27267417E+00
0.21189123E+00
0.16348039E+00
0.12466437E+00
0.95356554E-01
0.71834832E-01
0.53651467E-01
0.39857414E-01
0.29438958E-01
0.21714831E-01
0.15959300E-01
0.11671122E-01
0.85010557E-02
0.61873151E-02
0.45321211E-02
0.32962561E-02
0.23902380E-02
0.17394733E-02
0.12634653E-02
0.92114514E-03
0.67061832E-03
0.48852130E-03
0.35790171E-03
0.26307255E-03
0.19318188E-03
0.14126956E-03
0.10372705E-03
0.76422977E-04
0.55985623E-04
0.41122945E-04
0.30246116E-04
0.22173475E-04
0.16284514E-04
0.11920340E-04
0.87131612E-05
0.63591206E-05
0.46462574E-05
