atomic number =   78
effective nuclear charge =   78
electron count =    4
net charge =   74
basis set = approximate basis set limit (UGBS)      
exchange correlation functional = PW91PW91            
cutoff radius (picometer) =  300
number of shells =   50
prepared by = Thomas A. Manz      
prepared date = July 2010           
net magnetization =    0
density in atomic units:
0.68938750E+05
0.29811721E+01
0.48084776E-02
0.12090891E-04
0.39759893E-05
0.97940097E-06
0.75427874E-06
0.38250664E-06
0.30402411E-07
0.13542471E-06
0.88876391E-07
0.10531729E-07
0.65947465E-08
0.21779741E-07
0.20938916E-07
0.97727941E-08
0.16799703E-08
0.28637809E-09
0.20690407E-08
0.36299133E-08
0.36619896E-08
0.25851832E-08
0.13019766E-08
0.39946188E-09
0.34312487E-10
0.77862036E-10
0.29685901E-09
0.50027854E-09
0.60233474E-09
0.58404354E-09
0.47925341E-09
0.33603892E-09
0.19924792E-09
0.93003084E-10
0.28296702E-10
0.26972524E-11
0.51897440E-11
0.24134932E-10
0.49115469E-10
0.71451164E-10
0.86584850E-10
0.93065028E-10
0.91110272E-10
0.82560521E-10
0.69674745E-10
0.54984680E-10
0.40252565E-10
0.27033547E-10
0.16257405E-10
0.83790258E-11
