atomic number =   92
effective nuclear charge =   92
electron count =    4
net charge =   88
basis set = approximate basis set limit (UGBS)      
exchange correlation functional = PW91PW91            
cutoff radius (picometer) =  300
number of shells =   50
prepared by = Thomas A. Manz      
prepared date = July 2010           
net magnetization =    0
density in atomic units:
0.11399157E+06
0.76679331E+00
0.49371039E-03
0.32920325E-04
0.78301000E-05
0.20501363E-05
0.15047320E-05
0.78305249E-06
0.60087558E-07
0.27014113E-06
0.17940519E-06
0.21613394E-07
0.12919282E-07
0.43355520E-07
0.41915147E-07
0.19650621E-07
0.34095147E-08
0.55934202E-09
0.40978754E-08
0.72249922E-08
0.73066007E-08
0.51671947E-08
0.26074882E-08
0.80297829E-09
0.69695257E-10
0.15325621E-09
0.58882205E-09
0.99481989E-09
0.11992772E-08
0.11638359E-08
0.95556785E-09
0.67065020E-09
0.39793199E-09
0.18597719E-09
0.56727546E-10
0.54539693E-11
0.10220952E-10
0.47847008E-10
0.97587598E-10
0.14210044E-09
0.17227787E-09
0.18526736E-09
0.18142528E-09
0.16441820E-09
0.13881830E-09
0.10958674E-09
0.80218034E-10
0.53893973E-10
0.32430073E-10
0.16726939E-10
