atomic number =   91
effective nuclear charge =   91
electron count =   10
net charge =   81
basis set = approximate basis set limit (UGBS)      
exchange correlation functional = PW91PW91            
cutoff radius (picometer) =  300
number of shells =   50
prepared by = Thomas A. Manz      
prepared date = July 2010           
net magnetization =    0
density in atomic units:
0.11049023E+06
0.28060803E+01
0.14522852E-02
0.32013402E-04
0.75570947E-05
0.19926706E-05
0.14494968E-05
0.75865199E-06
0.59243245E-07
0.26016207E-06
0.17355131E-06
0.21377705E-07
0.12521618E-07
0.41734722E-07
0.40455223E-07
0.19062320E-07
0.33761742E-08
0.56909261E-09
0.39436685E-08
0.69545427E-08
0.70463910E-08
0.49959255E-08
0.25322822E-08
0.78926077E-09
0.75777482E-10
0.15024683E-09
0.56649241E-09
0.95677799E-09
0.11546090E-08
0.11221341E-08
0.92281494E-09
0.64889033E-09
0.38628004E-09
0.18170797E-09
0.56509696E-10
0.63915709E-11
0.10367818E-10
0.46167646E-10
0.93850511E-10
0.13665047E-09
0.16572491E-09
0.17835282E-09
0.17475590E-09
0.15858589E-09
0.13403284E-09
0.10593727E-09
0.77697973E-10
0.52328305E-10
0.31597686E-10
0.16410873E-10
