atomic number =   83
effective nuclear charge =   83
electron count =   80
net charge =    3
basis set = approximate basis set limit (UGBS)      
exchange correlation functional = PW91PW91            
cutoff radius (picometer) =  500
number of shells =  100
prepared by = Thomas A. Manz      
prepared date = July 2010           
net magnetization =    0
density in atomic units:
0.60776819E+06
0.60862341E+03
0.12604507E+03
0.68076248E+02
0.34205635E+02
0.15864497E+02
0.78048263E+01
0.46533055E+01
0.33135631E+01
0.24458706E+01
0.17847801E+01
0.13007991E+01
0.92625475E+00
0.65057147E+00
0.46721515E+00
0.33846563E+00
0.24373314E+00
0.17879017E+00
0.13284348E+00
0.99110410E-01
0.75304478E-01
0.58152001E-01
0.44989049E-01
0.35011519E-01
0.27515080E-01
0.21683943E-01
0.17138653E-01
0.13646266E-01
0.10855926E-01
0.86715650E-02
0.69601960E-02
0.55765295E-02
0.44846572E-02
0.36155209E-02
0.29165254E-02
0.23490223E-02
0.18910271E-02
0.15236754E-02
0.12318521E-02
0.99435146E-03
0.80270797E-03
0.64828596E-03
0.52291702E-03
0.42399557E-03
0.34355366E-03
0.27689597E-03
0.22368615E-03
0.18151540E-03
0.14685062E-03
0.11880796E-03
0.96124939E-04
0.77665514E-04
0.62939827E-04
0.51101691E-04
0.41461408E-04
0.33610359E-04
0.27206019E-04
0.22029399E-04
0.17851362E-04
0.14483410E-04
0.11740341E-04
0.95153955E-05
0.77194782E-05
0.62575400E-05
0.50698300E-05
0.41190601E-05
0.33445961E-05
0.27090546E-05
0.21927424E-05
0.17728987E-05
0.14372126E-05
0.11650873E-05
0.94332779E-06
0.76475328E-06
0.61881764E-06
0.50052012E-06
0.40498497E-06
0.32741059E-06
0.26491929E-06
0.21469911E-06
0.17366298E-06
0.14030276E-06
0.11330437E-06
0.91522836E-07
0.74090828E-07
0.60065723E-07
0.48659437E-07
0.39441627E-07
0.31977798E-07
0.25882857E-07
0.21008228E-07
0.17046725E-07
0.13819657E-07
0.11234923E-07
0.91331600E-08
0.74281141E-08
0.60561156E-08
0.49355640E-08
0.40210124E-08
0.32829102E-08
