atomic number =   85
effective nuclear charge =   85
electron count =   78
net charge =    7
basis set = approximate basis set limit (UGBS)      
exchange correlation functional = PW91PW91            
cutoff radius (picometer) =  300
number of shells =   50
prepared by = Thomas A. Manz      
prepared date = July 2010           
net magnetization =    0
density in atomic units:
0.94379234E+05
0.29047733E+03
0.92192238E+02
0.45607517E+02
0.17199795E+02
0.70926528E+01
0.42771168E+01
0.29842677E+01
0.20150671E+01
0.13133099E+01
0.81769073E+00
0.49445242E+00
0.30582535E+00
0.18589376E+00
0.11332875E+00
0.68772726E-01
0.41540675E-01
0.25819976E-01
0.15942065E-01
0.98626511E-02
0.61258129E-02
0.38057414E-02
0.23771890E-02
0.14870459E-02
0.92918647E-03
0.58111129E-03
0.36510406E-03
0.23273558E-03
0.14741368E-03
0.93123104E-04
0.59150134E-04
0.37414429E-04
0.23733015E-04
0.14983597E-04
0.94403849E-05
0.59883982E-05
0.38161361E-05
0.24331389E-05
0.15479443E-05
0.99645922E-06
0.64982970E-06
0.42446837E-06
0.28108997E-06
0.18848171E-06
0.12710962E-06
0.86636682E-07
0.59233120E-07
0.40618836E-07
0.27870387E-07
0.19150765E-07
