atomic number =   11
effective nuclear charge =   11
electron count =    2
net charge =    9
basis set = approximate basis set limit (UGBS)      
exchange correlation functional = PW91PW91            
cutoff radius (picometer) =  300
number of shells =   50
prepared by = Thomas A. Manz      
prepared date = May 2010            
net magnetization =    0
density in atomic units:
0.19524214E+03
0.16402538E+02
0.18194180E+01
0.20239986E+00
0.23743406E-01
0.23845190E-02
0.24320331E-03
0.29871309E-04
0.34502375E-05
0.42605416E-06
0.54917560E-07
0.62336625E-08
0.62067684E-09
0.22318177E-10
0.47080170E-11
0.55350065E-11
0.10337541E-11
0.44377991E-12
0.25226190E-11
0.41218240E-11
0.40261449E-11
0.27755133E-11
0.13617176E-11
0.39848553E-12
0.29896733E-13
0.99560741E-13
0.34806275E-12
0.56921075E-12
0.67402111E-12
0.64567487E-12
0.52426330E-12
0.36352697E-12
0.21240975E-12
0.96829134E-13
0.27917023E-13
0.22392777E-14
0.71587472E-14
0.29619397E-13
0.58068411E-13
0.82953799E-13
0.99419645E-13
0.10600844E-12
0.10313336E-12
0.92946287E-13
0.78040791E-13
0.61247008E-13
0.44553577E-13
0.29689542E-13
0.17661218E-13
0.89419888E-14
