atomic number =   55
effective nuclear charge =   55
electron count =   12
net charge =   43
basis set = approximate basis set limit (UGBS)      
exchange correlation functional = PW91PW91            
cutoff radius (picometer) =  300
number of shells =   50
prepared by = Thomas A. Manz      
prepared date = July 2010           
net magnetization =    0
density in atomic units:
0.23199295E+05
0.54613148E+02
0.82695332E+01
0.20891626E+01
0.37674198E+00
0.48870932E-01
0.56969794E-02
0.72670809E-03
0.83318315E-04
0.10013887E-04
0.12713137E-05
0.14413318E-06
0.17771734E-07
0.80611633E-08
0.67953292E-08
0.31834246E-08
0.55061483E-09
0.10158938E-09
0.69388134E-09
0.12082890E-08
0.12153015E-08
0.85613494E-09
0.43031287E-09
0.13170118E-09
0.11497150E-10
0.26615175E-10
0.99559569E-10
0.16701450E-09
0.20066206E-09
0.19426082E-09
0.15920075E-09
0.11151580E-09
0.66033019E-10
0.30770084E-10
0.93311704E-11
0.89507964E-12
0.17847450E-11
0.81259929E-11
0.16459030E-10
0.23889188E-10
0.28914426E-10
0.31054756E-10
0.30379237E-10
0.27518068E-10
0.23204209E-10
0.18307968E-10
0.13391032E-10
0.89895877E-11
0.54006951E-11
0.27803933E-11
