atomic number =   98
effective nuclear charge =   98
electron count =   80
net charge =   18
basis set = approximate basis set limit (UGBS)      
exchange correlation functional = PW91PW91            
cutoff radius (picometer) =  500
number of shells =  100
prepared by = Thomas A. Manz      
prepared date = July 2010           
net magnetization =    0
density in atomic units:
0.10015645E+07
0.73303259E+03
0.18546562E+03
0.77219810E+02
0.25118017E+02
0.13146937E+02
0.87001085E+01
0.55668044E+01
0.33924534E+01
0.19709107E+01
0.11230190E+01
0.66348481E+00
0.39583525E+00
0.24118008E+00
0.15634699E+00
0.10438184E+00
0.69538333E-01
0.47205400E-01
0.32245368E-01
0.21833325E-01
0.14922360E-01
0.10290133E-01
0.70220251E-02
0.47773556E-02
0.32662775E-02
0.22233231E-02
0.15081088E-02
0.10284689E-02
0.69585058E-03
0.47134142E-03
0.32050532E-03
0.21629834E-03
0.14643534E-03
0.99326309E-04
0.67300600E-04
0.45428744E-04
0.30622268E-04
0.20683194E-04
0.14073996E-04
0.95725236E-05
0.65272343E-05
0.44710414E-05
0.30675903E-05
0.21323033E-05
0.14873686E-05
0.10324461E-05
0.72226987E-06
0.51093997E-06
0.36050190E-06
0.25476825E-06
0.18030732E-06
0.12731248E-06
0.90075815E-07
0.63745325E-07
0.44823217E-07
0.31228385E-07
0.21466345E-07
0.14575125E-07
0.97415782E-08
0.63868084E-08
0.40766390E-08
0.25193860E-08
0.15043443E-08
0.86121582E-09
0.48051740E-09
0.28029826E-09
0.19513934E-09
0.18246020E-09
0.21272652E-09
0.26419580E-09
0.32140973E-09
0.37564488E-09
0.42092513E-09
0.45385079E-09
0.47476550E-09
0.48322074E-09
0.47919690E-09
0.46392404E-09
0.44278831E-09
0.41452389E-09
0.38080622E-09
0.34526726E-09
0.30770059E-09
0.27058966E-09
0.23448027E-09
0.20103323E-09
0.16993199E-09
0.14159707E-09
0.11712134E-09
0.95402408E-10
0.77684602E-10
0.62818029E-10
0.51259875E-10
0.42835815E-10
0.36936811E-10
0.33262438E-10
0.31611002E-10
0.31717309E-10
0.33152536E-10
0.35461249E-10
