atomic number =  105
effective nuclear charge =  105
electron count =   80
net charge =   25
basis set = approximate basis set limit (UGBS)      
exchange correlation functional = PW91PW91            
cutoff radius (picometer) =  500
number of shells =  100
prepared by = Thomas A. Manz      
prepared date = July 2010           
net magnetization =    0
density in atomic units:
0.12160405E+07
0.77844141E+03
0.21578468E+03
0.70105515E+02
0.23274824E+02
0.14159540E+02
0.89529762E+01
0.49872708E+01
0.26672876E+01
0.14106532E+01
0.75992072E+00
0.43792993E+00
0.25805455E+00
0.15500586E+00
0.98213352E-01
0.63387603E-01
0.40309194E-01
0.25912616E-01
0.16654655E-01
0.10532671E-01
0.67059076E-02
0.43036155E-02
0.27223225E-02
0.17137643E-02
0.10847911E-02
0.68320014E-03
0.42870580E-03
0.27104325E-03
0.16995374E-03
0.10683525E-03
0.67555164E-04
0.42366115E-04
0.26682374E-04
0.16839556E-04
0.10610818E-04
0.66468979E-05
0.41510616E-05
0.25919405E-05
0.16294699E-05
0.10217381E-05
0.64102278E-06
0.40416583E-06
0.25527405E-06
0.16411283E-06
0.10641691E-06
0.69090071E-07
0.45774119E-07
0.31090021E-07
0.21409791E-07
0.15019271E-07
0.10725656E-07
0.77434459E-08
0.56711147E-08
0.41739776E-08
0.30564979E-08
0.22125710E-08
0.15684037E-08
0.10829554E-08
0.72212641E-09
0.46083667E-09
0.27714081E-09
0.15606220E-09
0.84661202E-10
0.50679131E-10
0.44332555E-10
0.56866213E-10
0.81273314E-10
0.11214208E-09
0.14472684E-09
0.17567554E-09
0.20221551E-09
0.22320275E-09
0.23775457E-09
0.24655253E-09
0.24782584E-09
0.24379926E-09
0.23514587E-09
0.22221353E-09
0.20616978E-09
0.18818079E-09
0.16874084E-09
0.14862300E-09
0.12859977E-09
0.10932369E-09
0.91410018E-10
0.74979412E-10
0.60211010E-10
0.47219902E-10
0.36126400E-10
0.26792225E-10
0.19348851E-10
0.13569873E-10
0.93072989E-11
0.64664190E-11
0.48422724E-11
0.42526239E-11
0.45220685E-11
0.54830389E-11
0.69910579E-11
0.88831286E-11
