atomic number =  105
effective nuclear charge =  105
electron count =   10
net charge =   95
basis set = approximate basis set limit (UGBS)      
exchange correlation functional = PW91PW91            
cutoff radius (picometer) =  300
number of shells =   50
prepared by = Thomas A. Manz      
prepared date = July 2010           
net magnetization =    0
density in atomic units:
0.16577727E+06
0.64026278E+00
0.25999959E-03
0.54305292E-04
0.12135764E-04
0.33867045E-05
0.23075092E-05
0.12520475E-05
0.99211888E-07
0.41412298E-06
0.28201950E-06
0.37017138E-07
0.19955737E-07
0.66263780E-07
0.64935819E-07
0.31075469E-07
0.58053771E-08
0.10098159E-08
0.62341550E-08
0.11044172E-07
0.11260667E-07
0.80441174E-08
0.41265840E-08
0.13255400E-08
0.15538039E-09
0.24709376E-09
0.89633884E-09
0.15158560E-08
0.18361843E-08
0.17911242E-08
0.14793570E-08
0.10459434E-08
0.62782540E-09
0.29998873E-09
0.97535098E-10
0.14617781E-10
0.18367068E-10
0.73584819E-10
0.14851036E-09
0.21640632E-09
0.26306937E-09
0.28380107E-09
0.27875291E-09
0.25349836E-09
0.21485499E-09
0.17033815E-09
0.12541955E-09
0.84961295E-10
0.51762511E-10
0.27324814E-10
