atomic number =   78
effective nuclear charge =   78
electron count =   10
net charge =   68
basis set = approximate basis set limit (UGBS)      
exchange correlation functional = PW91PW91            
cutoff radius (picometer) =  500
number of shells =  100
prepared by = Thomas A. Manz      
prepared date = July 2010           
net magnetization =    0
density in atomic units:
0.48189769E+06
0.98875504E+02
0.21077260E+00
0.62223943E-03
0.60109555E-05
0.48998745E-05
0.13006164E-05
0.54038765E-06
0.72484158E-06
0.12182257E-06
0.53340454E-07
0.14302130E-06
0.99862270E-07
0.23262885E-07
0.17881092E-08
0.13302828E-07
0.23493774E-07
0.20589011E-07
0.11119660E-07
0.31877048E-08
0.24409064E-09
0.84071516E-09
0.25673101E-08
0.37211547E-08
0.37571919E-08
0.29529110E-08
0.18394080E-08
0.88010221E-09
0.26434613E-09
0.27690470E-10
0.64051216E-10
0.23658214E-09
0.42630496E-09
0.56070354E-09
0.61219385E-09
0.58315686E-09
0.49507631E-09
0.37744591E-09
0.25840674E-09
0.15401377E-09
0.75748068E-10
0.26887713E-10
0.45100325E-11
0.30375472E-11
0.15108777E-10
0.34638650E-10
0.55366794E-10
0.73046284E-10
0.85919355E-10
0.92677456E-10
0.93342313E-10
0.88700582E-10
0.80169107E-10
0.69156333E-10
0.56908436E-10
0.44518354E-10
0.32864090E-10
0.22716705E-10
0.14450232E-10
0.81970776E-11
0.38656786E-11
0.12952026E-11
0.23604144E-12
0.36895251E-12
0.13842322E-11
0.29509225E-11
0.48216843E-11
0.68024267E-11
0.86792162E-11
0.10324959E-10
0.11633691E-10
0.12577033E-10
0.13153269E-10
0.13361746E-10
0.13212765E-10
0.12785342E-10
0.12110427E-10
0.11245923E-10
0.10250599E-10
0.91790351E-11
0.80654840E-11
0.69469352E-11
0.58602034E-11
0.48403473E-11
0.39126558E-11
0.30868212E-11
0.23588859E-11
0.17389254E-11
0.12246808E-11
0.80916692E-12
0.49400604E-12
0.26576002E-12
0.11521104E-12
0.34885963E-13
0.12561458E-13
0.38480171E-13
0.10223944E-12
0.19564207E-12
0.31072077E-12
0.43933222E-12
