atomic number =   60
effective nuclear charge =   60
electron count =   54
net charge =    6
basis set = approximate basis set limit (UGBS)      
exchange correlation functional = PW91PW91            
cutoff radius (picometer) =  500
number of shells =  100
prepared by = Thomas A. Manz      
prepared date = July 2010           
net magnetization =    0
density in atomic units:
0.21314625E+06
0.37792514E+03
0.11854699E+03
0.30929073E+02
0.13589408E+02
0.10601294E+02
0.76220722E+01
0.47025843E+01
0.27587769E+01
0.16112320E+01
0.99115700E+00
0.68106574E+00
0.50523502E+00
0.39644009E+00
0.32508269E+00
0.26901367E+00
0.21991539E+00
0.17909883E+00
0.14441824E+00
0.11459374E+00
0.90601474E-01
0.71491882E-01
0.55726085E-01
0.43166440E-01
0.33443063E-01
0.25772480E-01
0.19785319E-01
0.15226583E-01
0.11646091E-01
0.89122653E-02
0.68354048E-02
0.52157538E-02
0.39885677E-02
0.30541820E-02
0.23373475E-02
0.17838690E-02
0.13600343E-02
0.10380682E-02
0.79585827E-03
0.60932123E-03
0.46680670E-03
0.35814030E-03
0.27456004E-03
0.21199077E-03
0.16367323E-03
0.12562399E-03
0.96731987E-04
0.74919495E-04
0.57816407E-04
0.44617878E-04
0.34426233E-04
0.26508433E-04
0.20472778E-04
0.15840535E-04
0.12234620E-04
0.94346306E-05
0.72550483E-05
0.55773912E-05
0.42881534E-05
0.32984681E-05
0.25337629E-05
0.19433173E-05
0.14922390E-05
0.11433349E-05
0.87515872E-06
0.67158538E-06
0.51496045E-06
0.39280980E-06
0.29939267E-06
0.22765259E-06
0.17342020E-06
0.13198165E-06
0.10013399E-06
0.75972068E-07
0.57380564E-07
0.43222663E-07
0.32496931E-07
0.24347830E-07
0.18208601E-07
0.13612294E-07
0.10119845E-07
0.74898905E-08
0.55252878E-08
0.40672248E-08
0.29964013E-08
0.22064541E-08
0.16237243E-08
0.11952097E-08
0.88162461E-09
0.65196559E-09
0.48670395E-09
0.36681691E-09
0.28004454E-09
0.21835717E-09
0.17405488E-09
0.14256815E-09
0.12057474E-09
0.10518170E-09
0.94646471E-10
0.87765427E-10
