atomic number =  106
effective nuclear charge =  106
electron count =    4
net charge =  102
basis set = approximate basis set limit (UGBS)      
exchange correlation functional = PW91PW91            
cutoff radius (picometer) =  400
number of shells =   75
prepared by = Thomas A. Manz      
prepared date = July 2010           
net magnetization =    0
density in atomic units:
0.17001600E+06
0.31863418E+00
0.37966640E-03
0.67611218E-04
0.15457057E-04
0.13324837E-04
0.10210712E-05
0.24629478E-05
0.11205376E-05
0.79130132E-07
0.39764393E-06
0.36777732E-06
0.10591126E-06
0.60430727E-08
0.40100677E-07
0.73280468E-07
0.60929999E-07
0.28531176E-07
0.61084093E-08
0.51880816E-09
0.45550341E-08
0.99087565E-08
0.12027198E-07
0.10447557E-07
0.69841661E-08
0.35068102E-08
0.11398270E-08
0.12618884E-09
0.15275964E-09
0.71652828E-09
0.13393183E-08
0.17683718E-08
0.19019903E-08
0.17527817E-08
0.14277654E-08
0.10295930E-08
0.64324746E-09
0.33732750E-09
0.13464083E-09
0.28003730E-10
0.32384963E-11
0.34964601E-10
0.96306949E-10
0.16548556E-09
0.22580678E-09
0.26828534E-09
0.28903477E-09
0.28852187E-09
0.27011915E-09
0.23871299E-09
0.19978573E-09
0.15846938E-09
0.11812377E-09
0.82168078E-10
0.52706128E-10
0.29861318E-10
0.13874219E-10
0.44278426E-11
0.47385246E-12
0.81563765E-12
0.42811015E-11
0.96816314E-11
0.16050019E-10
0.22596083E-10
0.28648531E-10
0.33764703E-10
0.37619931E-10
0.40162925E-10
0.41353986E-10
0.41314337E-10
0.40175981E-10
0.38115195E-10
0.35317981E-10
0.32026992E-10
0.28470967E-10
