atomic number =   98
effective nuclear charge =   98
electron count =   10
net charge =   88
basis set = approximate basis set limit (UGBS)      
exchange correlation functional = PW91PW91            
cutoff radius (picometer) =  300
number of shells =   50
prepared by = Thomas A. Manz      
prepared date = July 2010           
net magnetization =    0
density in atomic units:
0.13692936E+06
0.13700873E+01
0.47940886E-03
0.42761058E-04
0.97499242E-05
0.26453229E-05
0.18640667E-05
0.99267129E-06
0.77531737E-07
0.33463374E-06
0.22532267E-06
0.28489792E-07
0.16073603E-07
0.53623040E-07
0.52227861E-07
0.24766987E-07
0.44806918E-08
0.76111256E-09
0.50560742E-08
0.89374534E-08
0.90791730E-08
0.64566095E-08
0.32879601E-08
0.10369797E-08
0.10801866E-09
0.19538109E-09
0.72674311E-09
0.12283681E-08
0.14847116E-08
0.14449574E-08
0.11903677E-08
0.83883150E-09
0.50096627E-09
0.23707464E-09
0.75015730E-10
0.95596881E-11
0.13877339E-10
0.59389847E-10
0.12042450E-09
0.17541282E-09
0.21291900E-09
0.22944144E-09
0.22504346E-09
0.20433011E-09
0.17288561E-09
0.13678567E-09
0.10048678E-09
0.67809959E-10
0.41096078E-10
0.21478661E-10
