atomic number =   90
effective nuclear charge =   90
electron count =    4
net charge =   86
basis set = approximate basis set limit (UGBS)      
exchange correlation functional = PW91PW91            
cutoff radius (picometer) =  300
number of shells =   50
prepared by = Thomas A. Manz      
prepared date = July 2010           
net magnetization =    0
density in atomic units:
0.10681462E+06
0.94322950E+00
0.64146495E-03
0.29807477E-04
0.72294538E-05
0.18802384E-05
0.13896008E-05
0.72055246E-06
0.55536404E-07
0.24943276E-06
0.16539420E-06
0.19883128E-07
0.11954166E-07
0.40038117E-07
0.38681417E-07
0.18125231E-07
0.31413705E-08
0.51756172E-09
0.37861732E-08
0.66717423E-08
0.67453905E-08
0.47689483E-08
0.24062057E-08
0.74064932E-09
0.64209776E-10
0.14167383E-09
0.54385502E-09
0.91860636E-09
0.11073503E-08
0.10745943E-08
0.88220992E-09
0.61904853E-09
0.36728695E-09
0.17165923E-09
0.52338484E-10
0.50278922E-11
0.94472841E-11
0.44197708E-10
0.90121410E-10
0.13120600E-09
0.15907971E-09
0.17108311E-09
0.16751524E-09
0.15182533E-09
0.12815897E-09
0.10115096E-09
0.74067953E-10
0.49757812E-10
0.29934100E-10
0.15440154E-10
