atomic number =   78
effective nuclear charge =   78
electron count =   62
net charge =   16
basis set = approximate basis set limit (UGBS)      
exchange correlation functional = PW91PW91            
cutoff radius (picometer) =  400
number of shells =   75
prepared by = Thomas A. Manz      
prepared date = July 2010           
net magnetization =    0
density in atomic units:
0.72169117E+05
0.39252591E+03
0.94239059E+02
0.51780182E+02
0.30670300E+02
0.14203926E+02
0.62759342E+01
0.28322906E+01
0.13387706E+01
0.68448472E+00
0.37080753E+00
0.20565373E+00
0.11404935E+00
0.63865177E-01
0.35762358E-01
0.19943012E-01
0.11004675E-01
0.60609453E-02
0.33564144E-02
0.18690187E-02
0.10407305E-02
0.57929737E-03
0.31979306E-03
0.17755530E-03
0.98875193E-04
0.55128425E-04
0.30820796E-04
0.17352515E-04
0.96643753E-05
0.53942063E-05
0.30803212E-05
0.17625113E-05
0.99783404E-06
0.56376854E-06
0.32390869E-06
0.18621083E-06
0.10579251E-06
0.60250613E-07
0.34430762E-07
0.19388972E-07
0.10751096E-07
0.59903225E-08
0.33461360E-08
0.18839330E-08
0.10976605E-08
0.67689232E-09
0.45184406E-09
0.32748729E-09
0.25256205E-09
0.20219189E-09
0.16331846E-09
0.13060916E-09
0.10187676E-09
0.77119394E-10
0.56781618E-10
0.40552849E-10
0.28524502E-10
0.20605982E-10
0.16212857E-10
0.14674168E-10
0.15315787E-10
0.17437812E-10
0.20426131E-10
0.23761508E-10
0.27000959E-10
0.29804787E-10
0.31946789E-10
0.33356377E-10
0.33937918E-10
0.33806211E-10
0.32987554E-10
0.31505326E-10
0.29526569E-10
0.27185761E-10
0.24633365E-10
