atomic number =   60
effective nuclear charge =   60
electron count =   10
net charge =   50
basis set = approximate basis set limit (UGBS)      
exchange correlation functional = PW91PW91            
cutoff radius (picometer) =  300
number of shells =   50
prepared by = Thomas A. Manz      
prepared date = July 2010           
net magnetization =    0
density in atomic units:
0.30030172E+05
0.35511909E+02
0.37867126E+00
0.27625344E-02
0.25495994E-04
0.52153496E-06
0.27883172E-06
0.14604441E-06
0.11905670E-07
0.51447994E-07
0.34083577E-07
0.42193808E-08
0.25705729E-08
0.83300318E-08
0.80423366E-08
0.37919667E-08
0.68229350E-09
0.12638809E-09
0.79559037E-09
0.13923142E-08
0.14092035E-08
0.10002238E-08
0.50888238E-09
0.16070383E-09
0.17566329E-10
0.31662048E-10
0.11423597E-09
0.19195569E-09
0.23154208E-09
0.22511237E-09
0.18538127E-09
0.13066755E-09
0.78087939E-10
0.37048718E-10
0.11839433E-10
0.16502437E-11
0.23117721E-11
0.93832338E-11
0.18869194E-10
0.27421230E-10
0.33256044E-10
0.35824836E-10
0.35134506E-10
0.31908625E-10
0.27005476E-10
0.21379421E-10
0.15718178E-10
0.10621311E-10
0.64505731E-11
0.33862657E-11
