atomic number =   92
effective nuclear charge =   92
electron count =   80
net charge =   12
basis set = approximate basis set limit (UGBS)      
exchange correlation functional = PW91PW91            
cutoff radius (picometer) =  400
number of shells =   75
prepared by = Thomas A. Manz      
prepared date = July 2010           
net magnetization =    0
density in atomic units:
0.11999573E+06
0.44029993E+03
0.13786882E+03
0.70208771E+02
0.25835938E+02
0.11037272E+02
0.69343753E+01
0.46716347E+01
0.29714131E+01
0.18053743E+01
0.10839696E+01
0.65330172E+00
0.39963484E+00
0.25295955E+00
0.16431035E+00
0.10868616E+00
0.72612055E-01
0.49077567E-01
0.33628955E-01
0.23250112E-01
0.16141545E-01
0.11206044E-01
0.77424268E-02
0.53578424E-02
0.37071235E-02
0.25600055E-02
0.17661673E-02
0.12203485E-02
0.83434576E-03
0.56963880E-03
0.39336502E-03
0.27109933E-03
0.18498047E-03
0.12583626E-03
0.86513675E-04
0.59534716E-04
0.40740473E-04
0.28045502E-04
0.19450536E-04
0.13440285E-04
0.92590853E-05
0.64342021E-05
0.44819212E-05
0.31196773E-05
0.21779206E-05
0.15207995E-05
0.10626985E-05
0.74137375E-06
0.51442555E-06
0.35658093E-06
0.24655023E-06
0.17010871E-06
0.11641175E-06
0.79195274E-07
0.53785424E-07
0.36065423E-07
0.23849239E-07
0.15608030E-07
0.10094591E-07
0.64022907E-08
0.39656238E-08
0.24042128E-08
0.14143855E-08
0.79874113E-09
0.43309442E-09
0.22600627E-09
0.11902358E-09
0.70329478E-10
0.54969290E-10
0.56667712E-10
0.65360523E-10
0.75549185E-10
0.84087355E-10
0.89491151E-10
0.91529277E-10
