atomic number =   78
effective nuclear charge =   78
electron count =   30
net charge =   48
basis set = approximate basis set limit (UGBS)      
exchange correlation functional = PW91PW91            
cutoff radius (picometer) =  500
number of shells =  100
prepared by = Thomas A. Manz      
prepared date = July 2010           
net magnetization =    0
density in atomic units:
0.49914125E+06
0.48712152E+03
0.88774193E+02
0.12003293E+02
0.31662104E+01
0.12245901E+01
0.41570660E+00
0.11722081E+00
0.32064412E-01
0.86322892E-02
0.22164409E-02
0.59388380E-03
0.14989820E-03
0.33708155E-04
0.77125369E-05
0.17519064E-05
0.37408566E-06
0.97930297E-07
0.32795953E-07
0.11233264E-07
0.50466364E-08
0.53507287E-08
0.73219217E-08
0.82578575E-08
0.74566504E-08
0.54698615E-08
0.32162983E-08
0.14427385E-08
0.39483475E-09
0.65182477E-10
0.21737798E-09
0.58580696E-09
0.94990649E-09
0.11852460E-08
0.12519742E-08
0.11635805E-08
0.96770780E-09
0.72360801E-09
0.48508925E-09
0.28161984E-09
0.13328808E-09
0.44412609E-10
0.76816721E-11
0.10903546E-10
0.39271360E-10
0.80711271E-10
0.12287051E-09
0.15769668E-09
0.18208851E-09
0.19379975E-09
0.19313456E-09
0.18190008E-09
0.16315621E-09
0.13977863E-09
0.11419365E-09
0.88670266E-10
0.64906309E-10
0.44415683E-10
0.27881321E-10
0.15527435E-10
0.71165834E-11
0.22852724E-11
0.49846238E-12
0.10917128E-11
0.34240514E-11
0.68160989E-11
0.10772869E-10
0.14895089E-10
0.18758549E-10
0.22115502E-10
0.24748656E-10
0.26610139E-10
0.27700434E-10
0.27987867E-10
0.27650033E-10
0.26669921E-10
0.25205926E-10
0.23345405E-10
0.21238138E-10
0.18984420E-10
0.16640422E-10
0.14299586E-10
0.12037512E-10
0.99176656E-11
0.79961654E-11
0.62906880E-11
0.47925518E-11
0.35174144E-11
0.24655482E-11
0.16177649E-11
0.97954099E-12
0.52040522E-12
0.22218517E-12
0.68523990E-13
0.34151349E-13
0.98610193E-13
0.24029227E-12
0.44237194E-12
0.68842891E-12
0.96092914E-12
