atomic number =   80
effective nuclear charge =   80
electron count =   78
net charge =    2
basis set = approximate basis set limit (UGBS)      
exchange correlation functional = PW91PW91            
cutoff radius (picometer) =  500
number of shells =  100
prepared by = Thomas A. Manz      
prepared date = July 2010           
net magnetization =    0
density in atomic units:
0.54146325E+06
0.57764111E+03
0.12081475E+03
0.61500172E+02
0.34509388E+02
0.17132183E+02
0.82843981E+01
0.45235801E+01
0.30312431E+01
0.22231388E+01
0.16649566E+01
0.12591757E+01
0.93291950E+00
0.68001443E+00
0.50279456E+00
0.37244499E+00
0.27264762E+00
0.20187502E+00
0.15044789E+00
0.11193693E+00
0.84416673E-01
0.64473175E-01
0.49172495E-01
0.37641466E-01
0.29064400E-01
0.22480436E-01
0.17429382E-01
0.13617880E-01
0.10629687E-01
0.83362535E-02
0.65752445E-02
0.51791500E-02
0.40988280E-02
0.32547128E-02
0.25878244E-02
0.20556208E-02
0.16333001E-02
0.13002802E-02
0.10397581E-02
0.83101628E-03
0.66495931E-03
0.53313526E-03
0.42748518E-03
0.34505970E-03
0.27874071E-03
0.22423346E-03
0.18103956E-03
0.14699447E-03
0.11912038E-03
0.96608215E-04
0.78424033E-04
0.63611864E-04
0.51780058E-04
0.42244847E-04
0.34459008E-04
0.28099850E-04
0.22889821E-04
0.18662635E-04
0.15236495E-04
0.12460049E-04
0.10191783E-04
0.83404784E-05
0.68383993E-05
0.56087028E-05
0.46017112E-05
0.37899592E-05
0.31239015E-05
0.25706843E-05
0.21174576E-05
0.17442304E-05
0.14411737E-05
0.11919666E-05
0.98559667E-06
0.81635784E-06
0.67533034E-06
0.55876058E-06
0.46260513E-06
0.38277338E-06
0.31695296E-06
0.26282495E-06
0.21753193E-06
0.17981350E-06
0.14849458E-06
0.12260459E-06
0.10136927E-06
0.83868613E-07
0.69292255E-07
0.57223787E-07
0.47237197E-07
0.38896186E-07
0.32077743E-07
0.26422590E-07
0.21723126E-07
0.17889988E-07
0.14714786E-07
0.12095868E-07
0.99573398E-08
0.81825524E-08
0.67147869E-08
0.55154885E-08
