atomic number =   88
effective nuclear charge =   88
electron count =    4
net charge =   84
basis set = approximate basis set limit (UGBS)      
exchange correlation functional = PW91PW91            
cutoff radius (picometer) =  300
number of shells =   50
prepared by = Thomas A. Manz      
prepared date = July 2010           
net magnetization =    0
density in atomic units:
0.99874016E+05
0.11554650E+01
0.85874152E-03
0.26646827E-04
0.66367488E-05
0.17133960E-05
0.12755961E-05
0.65886576E-06
0.51038885E-07
0.22895486E-06
0.15154443E-06
0.18172903E-07
0.11002603E-07
0.36763261E-07
0.35487549E-07
0.16617108E-07
0.28760476E-08
0.47658477E-09
0.34791912E-08
0.61265917E-08
0.61915215E-08
0.43764978E-08
0.22073452E-08
0.67909334E-09
0.58787003E-10
0.13029769E-09
0.49964499E-09
0.84365293E-09
0.10166594E-08
0.98642272E-09
0.80981954E-09
0.56818339E-09
0.33706449E-09
0.15749352E-09
0.48001315E-10
0.46060365E-11
0.86884042E-11
0.40609988E-10
0.82771172E-10
0.12050951E-09
0.14608754E-09
0.15705190E-09
0.15380008E-09
0.13939087E-09
0.11767612E-09
0.92873285E-10
0.67984264E-10
0.45678381E-10
0.27477454E-10
0.14172605E-10
