atomic number =   55
effective nuclear charge =   55
electron count =   46
net charge =    9
basis set = approximate basis set limit (UGBS)      
exchange correlation functional = PW91PW91            
cutoff radius (picometer) =  300
number of shells =   50
prepared by = Thomas A. Manz      
prepared date = July 2010           
net magnetization =    0
density in atomic units:
0.23412838E+05
0.17224785E+03
0.61350346E+02
0.16891176E+02
0.81595221E+01
0.60454941E+01
0.41593471E+01
0.25841339E+01
0.14634062E+01
0.79713798E+00
0.41599351E+00
0.21199252E+00
0.11288018E+00
0.59264399E-01
0.31303272E-01
0.16451119E-01
0.85640345E-02
0.46238857E-02
0.24749148E-02
0.13287314E-02
0.71714440E-03
0.38665975E-03
0.20935418E-03
0.11321633E-03
0.60966133E-04
0.32845506E-04
0.17839400E-04
0.99339895E-05
0.55367623E-05
0.31083414E-05
0.17768629E-05
0.10201860E-05
0.59143252E-06
0.34172805E-06
0.19630133E-06
0.11263107E-06
0.63984707E-07
0.35550332E-07
0.19065199E-07
0.99586206E-08
0.50339124E-08
0.23759132E-08
0.10547013E-08
0.43802462E-09
0.17622102E-09
0.88235662E-10
0.72825704E-10
0.80954833E-10
0.90125941E-10
0.92306357E-10
