atomic number =   94
effective nuclear charge =   94
electron count =   86
net charge =    8
basis set = approximate basis set limit (UGBS)      
exchange correlation functional = PW91PW91            
cutoff radius (picometer) =  400
number of shells =   75
prepared by = Thomas A. Manz      
prepared date = July 2010           
net magnetization =    0
density in atomic units:
0.12788159E+06
0.44292221E+03
0.14583421E+03
0.69623825E+02
0.24818298E+02
0.11396577E+02
0.73266926E+01
0.47200098E+01
0.28529515E+01
0.17058115E+01
0.10683964E+01
0.71871638E+00
0.51850933E+00
0.39609894E+00
0.31090444E+00
0.24578105E+00
0.19340086E+00
0.15120545E+00
0.11776803E+00
0.91221370E-01
0.70266850E-01
0.53738836E-01
0.40766980E-01
0.30856177E-01
0.23303863E-01
0.17551770E-01
0.13198570E-01
0.99327210E-02
0.74117808E-02
0.55259247E-02
0.41559115E-02
0.31210810E-02
0.23260817E-02
0.17299266E-02
0.12971631E-02
0.97318226E-03
0.72704558E-03
0.54551865E-03
0.41156713E-03
0.30950960E-03
0.23213773E-03
0.17521200E-03
0.13243695E-03
0.10001408E-03
0.75700562E-04
0.57294008E-04
0.43409804E-04
0.32862044E-04
0.24804025E-04
0.18732751E-04
0.14150636E-04
0.10697407E-04
0.80628161E-05
0.60746729E-05
0.45886441E-05
0.34553832E-05
0.25916906E-05
0.19464294E-05
0.14622730E-05
0.10962025E-05
0.81977140E-06
0.61382030E-06
0.45905671E-06
0.34232349E-06
0.25474048E-06
0.18924712E-06
0.14063301E-06
0.10406946E-06
0.76697248E-07
0.56539530E-07
0.41704457E-07
0.30547728E-07
0.22255142E-07
0.16175516E-07
0.11750421E-07
