atomic number =   85
effective nuclear charge =   85
electron count =   62
net charge =   23
basis set = approximate basis set limit (UGBS)      
exchange correlation functional = PW91PW91            
cutoff radius (picometer) =  300
number of shells =   50
prepared by = Thomas A. Manz      
prepared date = July 2010           
net magnetization =    0
density in atomic units:
0.94361930E+05
0.28741248E+03
0.87290131E+02
0.44349396E+02
0.16854614E+02
0.53852520E+01
0.18910053E+01
0.78190559E+00
0.33343452E+00
0.14716433E+00
0.63500136E-01
0.26457664E-01
0.11529270E-01
0.48786933E-02
0.20629398E-02
0.86558622E-03
0.35623205E-03
0.15367119E-03
0.65182379E-04
0.27591168E-04
0.11677535E-04
0.48831316E-05
0.20199252E-05
0.81397877E-06
0.31432342E-06
0.11587919E-06
0.41158192E-07
0.15013606E-07
0.59908531E-08
0.30293204E-08
0.19338973E-08
0.13159773E-08
0.86000357E-09
0.52319443E-09
0.32020123E-09
0.24297364E-09
0.25661748E-09
0.32187575E-09
0.40259426E-09
0.46852106E-09
0.50467613E-09
0.50629922E-09
0.47627285E-09
0.42214823E-09
0.35339501E-09
0.28020841E-09
0.20956224E-09
0.14742278E-09
0.97278581E-10
0.60706981E-10
