atomic number =   98
effective nuclear charge =   98
electron count =   86
net charge =   12
basis set = approximate basis set limit (UGBS)      
exchange correlation functional = PW91PW91            
cutoff radius (picometer) =  500
number of shells =  100
prepared by = Thomas A. Manz      
prepared date = July 2010           
net magnetization =    0
density in atomic units:
0.10015645E+07
0.73378094E+03
0.18624928E+03
0.77299789E+02
0.25377066E+02
0.13530485E+02
0.89191055E+01
0.56118793E+01
0.33975778E+01
0.20275824E+01
0.12549707E+01
0.85250449E+00
0.61535656E+00
0.46482220E+00
0.36634180E+00
0.29140607E+00
0.22889213E+00
0.17965302E+00
0.13996401E+00
0.10743317E+00
0.82387626E-01
0.63206024E-01
0.47932040E-01
0.36161486E-01
0.27326934E-01
0.20558147E-01
0.15419223E-01
0.11607864E-01
0.86887246E-02
0.65122172E-02
0.48959232E-02
0.36623494E-02
0.27471939E-02
0.20641363E-02
0.15502815E-02
0.11610686E-02
0.86872897E-03
0.65080152E-03
0.48989983E-03
0.36829215E-03
0.27708709E-03
0.20883644E-03
0.15729375E-03
0.11941475E-03
0.90682763E-04
0.68444766E-04
0.51850559E-04
0.39532773E-04
0.30034967E-04
0.22817476E-04
0.17334844E-04
0.13139103E-04
0.99895742E-05
0.76082110E-05
0.57817501E-05
0.43845957E-05
0.33135325E-05
0.25021302E-05
0.18881721E-05
0.14250888E-05
0.10725121E-05
0.80590831E-06
0.60503902E-06
0.45323975E-06
0.33868258E-06
0.25370221E-06
0.18965711E-06
0.14092460E-06
0.10450470E-06
0.77229600E-07
0.57163749E-07
0.42262084E-07
0.31118894E-07
0.22889822E-07
0.16756308E-07
0.12239986E-07
0.89339620E-08
0.65056311E-08
0.47306554E-08
0.34501937E-08
0.25115885E-08
0.18277890E-08
0.13282766E-08
0.96719943E-09
0.71176542E-09
0.52439225E-09
0.38927106E-09
0.29022554E-09
0.21788664E-09
0.16486074E-09
0.12626261E-09
0.98269608E-10
0.78249247E-10
0.64545827E-10
0.55484329E-10
0.50146925E-10
0.47885546E-10
0.48197172E-10
0.50547410E-10
0.54599873E-10
