atomic number =   74
effective nuclear charge =   74
electron count =   46
net charge =   28
basis set = approximate basis set limit (UGBS)      
exchange correlation functional = PW91PW91            
cutoff radius (picometer) =  400
number of shells =   75
prepared by = Thomas A. Manz      
prepared date = July 2010           
net magnetization =    0
density in atomic units:
0.60992273E+05
0.35529416E+03
0.74474739E+02
0.29251608E+02
0.19233461E+02
0.96949358E+01
0.41902556E+01
0.16397899E+01
0.59764636E+00
0.21909790E+00
0.81708156E-01
0.30696856E-01
0.11349353E-01
0.42726588E-02
0.16274658E-02
0.62717282E-03
0.24068385E-03
0.92744282E-04
0.35778605E-04
0.13838539E-04
0.52822802E-05
0.20246155E-05
0.77331310E-06
0.30819072E-06
0.12821515E-06
0.55489931E-07
0.24740050E-07
0.11355940E-07
0.53871565E-08
0.28966640E-08
0.19465929E-08
0.15540567E-08
0.13222493E-08
0.10989105E-08
0.85840085E-09
0.61205652E-09
0.38727674E-09
0.21368775E-09
0.99916485E-10
0.40374037E-10
0.26612147E-10
0.44286966E-10
0.78317297E-10
0.11651789E-09
0.14949640E-09
0.17215809E-09
0.18248081E-09
0.18060070E-09
0.16846353E-09
0.14890006E-09
0.12516066E-09
0.10006303E-09
0.75652908E-10
0.53851208E-10
0.35931955E-10
0.21939497E-10
0.12030313E-10
0.60375914E-11
0.33425376E-11
0.32430024E-11
0.50456969E-11
0.80479538E-11
0.11673803E-10
0.15441924E-10
0.18957169E-10
0.21921985E-10
0.24166407E-10
0.25648960E-10
0.26362107E-10
0.26307649E-10
0.25550432E-10
0.24280024E-10
0.22561271E-10
0.20539057E-10
0.18340180E-10
