atomic number =   80
effective nuclear charge =   80
electron count =   10
net charge =   70
basis set = approximate basis set limit (UGBS)      
exchange correlation functional = PW91PW91            
cutoff radius (picometer) =  300
number of shells =   50
prepared by = Thomas A. Manz      
prepared date = July 2010           
net magnetization =    0
density in atomic units:
0.74798570E+05
0.78402009E+01
0.11134490E-01
0.21964755E-04
0.45058905E-05
0.11330982E-05
0.85065841E-06
0.43774645E-06
0.35496679E-07
0.15266296E-06
0.10114006E-06
0.12451452E-07
0.74799580E-08
0.24528452E-07
0.23704128E-07
0.11159186E-07
0.19834088E-08
0.34867145E-09
0.23270481E-08
0.40881298E-08
0.41380521E-08
0.29335721E-08
0.14880027E-08
0.46530527E-09
0.46515972E-10
0.89922826E-10
0.33388911E-09
0.56276794E-09
0.67881073E-09
0.65960509E-09
0.54261823E-09
0.38178147E-09
0.22748778E-09
0.10725625E-09
0.33608678E-10
0.40608818E-11
0.63033801E-11
0.27267745E-10
0.55226601E-10
0.80349824E-10
0.97454753E-10
0.10491082E-09
0.10282861E-09
0.93323134E-10
0.78894273E-10
0.62362907E-10
0.45776136E-10
0.30854670E-10
0.18661159E-10
0.97217312E-11
