atomic number =  106
effective nuclear charge =  106
electron count =    2
net charge =  104
basis set = approximate basis set limit (UGBS)      
exchange correlation functional = PW91PW91            
cutoff radius (picometer) =  500
number of shells =  100
prepared by = Thomas A. Manz      
prepared date = July 2010           
net magnetization =    0
density in atomic units:
0.10184157E+07
0.59967851E-02
0.23342756E-03
0.43871551E-04
0.11447112E-04
0.88587640E-05
0.25989264E-05
0.93513813E-06
0.13459610E-05
0.23196121E-06
0.89635911E-07
0.25653932E-06
0.18204796E-06
0.42621497E-07
0.26068177E-08
0.23212925E-07
0.41918426E-07
0.36948087E-07
0.19973942E-07
0.56799032E-08
0.35674957E-09
0.14215485E-08
0.45324362E-08
0.66182002E-08
0.66945569E-08
0.52598796E-08
0.32692800E-08
0.15548796E-08
0.45621415E-09
0.36224888E-10
0.10429965E-09
0.41509837E-09
0.75551854E-09
0.99611297E-09
0.10880846E-08
0.10357807E-08
0.87833657E-09
0.66838690E-09
0.45622056E-09
0.27046712E-09
0.13155395E-09
0.45163782E-10
0.59899455E-11
0.39716628E-11
0.25957353E-10
0.61108417E-10
0.98195480E-10
0.12976667E-09
0.15266302E-09
0.16461262E-09
0.16563632E-09
0.15727350E-09
0.14199432E-09
0.12234437E-09
0.10049474E-09
0.78444591E-10
0.57750121E-10
0.39756733E-10
0.25126826E-10
0.14090853E-10
0.64756720E-11
0.19907541E-11
0.18641958E-12
0.49125005E-12
0.23526580E-11
0.51814529E-11
0.85418938E-11
0.12077614E-10
0.15421536E-10
0.18356035E-10
0.20682039E-10
0.22355551E-10
0.23359085E-10
0.23688721E-10
0.23449473E-10
0.22668135E-10
0.21455037E-10
0.19908348E-10
0.18127437E-10
0.16221247E-10
0.14233132E-10
0.12241927E-10
0.10315341E-10
0.85060379E-11
0.68632253E-11
0.53992323E-11
0.41149488E-11
0.30209813E-11
0.21158927E-11
0.13854485E-11
0.83347782E-12
0.43532330E-12
0.17491974E-12
0.38491274E-13
0.43815502E-14
0.55208042E-13
0.17258794E-12
0.34222882E-12
0.54959574E-12
0.77958966E-12
