atomic number =  100
effective nuclear charge =  100
electron count =   60
net charge =   40
basis set = approximate basis set limit (UGBS)      
exchange correlation functional = PW91PW91            
cutoff radius (picometer) =  300
number of shells =   50
prepared by = Thomas A. Manz      
prepared date = July 2010           
net magnetization =    0
density in atomic units:
0.15241283E+06
0.32433472E+03
0.11578696E+03
0.33895088E+02
0.70059543E+01
0.11018282E+01
0.17019387E+00
0.30998735E-01
0.52664136E-02
0.91106963E-03
0.16814389E-03
0.32628781E-04
0.72911266E-05
0.15333424E-05
0.32305684E-06
0.69601406E-07
0.11209754E-07
0.36294376E-08
0.89585317E-08
0.13792130E-07
0.13825817E-07
0.10297931E-07
0.60032632E-08
0.28109262E-08
0.12877397E-08
0.11009932E-08
0.15571090E-08
0.20570294E-08
0.23021511E-08
0.22070989E-08
0.18536326E-08
0.13779525E-08
0.91504399E-09
0.54102750E-09
0.29470923E-09
0.17364184E-09
0.14650277E-09
0.17816519E-09
0.23629229E-09
0.29334765E-09
0.33315414E-09
0.34946396E-09
0.34113676E-09
0.31273420E-09
0.27059718E-09
0.22198046E-09
0.17239452E-09
0.12678091E-09
0.88323099E-10
0.58731180E-10
