atomic number =   83
effective nuclear charge =   83
electron count =   80
net charge =    3
basis set = approximate basis set limit (UGBS)      
exchange correlation functional = PW91PW91            
cutoff radius (picometer) =  400
number of shells =   75
prepared by = Thomas A. Manz      
prepared date = July 2010           
net magnetization =    0
density in atomic units:
0.87699312E+05
0.41953616E+03
0.10669920E+03
0.63717571E+02
0.30978180E+02
0.12557367E+02
0.62108727E+01
0.39544854E+01
0.27996342E+01
0.20078514E+01
0.14259872E+01
0.99828690E+00
0.69268227E+00
0.48394021E+00
0.34038857E+00
0.24130848E+00
0.17246868E+00
0.12505637E+00
0.92414439E-01
0.69362178E-01
0.52684236E-01
0.40325772E-01
0.30991398E-01
0.23997921E-01
0.18690091E-01
0.14612463E-01
0.11469743E-01
0.90482496E-02
0.71129599E-02
0.56050881E-02
0.44579292E-02
0.35471455E-02
0.28087799E-02
0.22222039E-02
0.17702994E-02
0.14106437E-02
0.11200225E-02
0.89186127E-03
0.71281736E-03
0.56778861E-03
0.45096615E-03
0.35974660E-03
0.28711339E-03
0.22887882E-03
0.18271491E-03
0.14585146E-03
0.11652773E-03
0.93050970E-04
0.74163712E-04
0.59172718E-04
0.47249487E-04
0.37786351E-04
0.30166586E-04
0.24095452E-04
0.19307461E-04
0.15440171E-04
0.12324703E-04
0.98504861E-05
0.78851372E-05
0.63051552E-05
0.50380322E-05
0.40320283E-05
0.32256048E-05
0.25779489E-05
0.20578393E-05
0.16424766E-05
0.13133323E-05
0.10483925E-05
0.83562003E-06
0.66744207E-06
0.53421513E-06
0.42594374E-06
0.33910229E-06
0.27029088E-06
0.21582653E-06
