atomic number =   98
effective nuclear charge =   98
electron count =   12
net charge =   86
basis set = approximate basis set limit (UGBS)      
exchange correlation functional = PW91PW91            
cutoff radius (picometer) =  300
number of shells =   50
prepared by = Thomas A. Manz      
prepared date = July 2010           
net magnetization =    0
density in atomic units:
0.14158864E+06
0.27522228E+02
0.73545015E+00
0.91875335E-02
0.82992112E-04
0.28343538E-05
0.22817085E-05
0.11244123E-05
0.94179171E-07
0.39758382E-06
0.26124067E-06
0.31920063E-07
0.19791754E-07
0.63986946E-07
0.61582035E-07
0.28907131E-07
0.51153726E-08
0.92863728E-09
0.60952239E-08
0.10665423E-07
0.10776898E-07
0.76309794E-08
0.38658299E-08
0.12068317E-08
0.12088869E-09
0.23715996E-09
0.87376811E-09
0.14694831E-08
0.17709441E-08
0.17197007E-08
0.14140659E-08
0.99445474E-09
0.59236982E-09
0.27912742E-09
0.87405125E-10
0.10624338E-10
0.16653937E-10
0.71413785E-10
0.14435241E-09
0.20983927E-09
0.25435673E-09
0.27365593E-09
0.26824984E-09
0.24339122E-09
0.20575849E-09
0.16266336E-09
0.11934798E-09
0.80439176E-10
0.48652436E-10
0.25345113E-10
