atomic number =   86
effective nuclear charge =   86
electron count =   18
net charge =   68
basis set = approximate basis set limit (UGBS)      
exchange correlation functional = PW91PW91            
cutoff radius (picometer) =  300
number of shells =   50
prepared by = Thomas A. Manz      
prepared date = July 2010           
net magnetization =    0
density in atomic units:
0.96315695E+05
0.11433067E+03
0.85892897E+01
0.28989092E+00
0.82939602E-02
0.18690895E-03
0.37278078E-05
0.71825923E-06
0.63987102E-07
0.24042225E-06
0.17857138E-06
0.31342612E-07
0.12502650E-07
0.37941927E-07
0.39437374E-07
0.20766002E-07
0.51869273E-08
0.11502472E-08
0.35218777E-08
0.63215584E-08
0.67299646E-08
0.50806510E-08
0.28394531E-08
0.11058340E-08
0.27107974E-09
0.19650784E-09
0.50594584E-09
0.85376400E-09
0.10614175E-08
0.10682373E-08
0.91396229E-09
0.67593614E-09
0.43258713E-09
0.23136779E-09
0.97830410E-10
0.33377159E-10
0.22013117E-10
0.44642935E-10
0.83125173E-10
0.12137776E-09
0.14993541E-09
0.16498303E-09
0.16535011E-09
0.15368826E-09
0.13341873E-09
0.10877407E-09
0.82959015E-10
0.58857114E-10
0.38421551E-10
0.22730106E-10
