atomic number =   98
effective nuclear charge =   98
electron count =   78
net charge =   20
basis set = approximate basis set limit (UGBS)      
exchange correlation functional = PW91PW91            
cutoff radius (picometer) =  300
number of shells =   50
prepared by = Thomas A. Manz      
prepared date = July 2010           
net magnetization =    0
density in atomic units:
0.14427803E+06
0.32953284E+03
0.12095991E+03
0.37594425E+02
0.14231316E+02
0.81856060E+01
0.47544932E+01
0.25538135E+01
0.12447499E+01
0.58182704E+00
0.25869933E+00
0.11177974E+00
0.51282261E-01
0.23215547E-01
0.10565576E-01
0.47567263E-02
0.20920630E-02
0.95622789E-03
0.43029705E-03
0.19432575E-03
0.88587884E-04
0.40424700E-04
0.18531538E-04
0.84482745E-05
0.38045837E-05
0.17070967E-05
0.77767254E-06
0.37506703E-06
0.18997490E-06
0.10384903E-06
0.61876513E-07
0.38898950E-07
0.25225440E-07
0.16318516E-07
0.10387873E-07
0.65337487E-08
0.41231236E-08
0.27183533E-08
0.20070594E-08
0.17462861E-08
0.17198618E-08
0.17834045E-08
0.18375814E-08
0.18373819E-08
0.17640616E-08
0.16243420E-08
0.14332158E-08
0.12139839E-08
0.98947550E-09
0.77912304E-09
