atomic number =  106
effective nuclear charge =  106
electron count =   10
net charge =   96
basis set = approximate basis set limit (UGBS)      
exchange correlation functional = PW91PW91            
cutoff radius (picometer) =  400
number of shells =   75
prepared by = Thomas A. Manz      
prepared date = July 2010           
net magnetization =    0
density in atomic units:
0.17006488E+06
0.10991468E+01
0.81269775E-03
0.68574751E-04
0.16298307E-04
0.13538386E-04
0.11279731E-05
0.24825761E-05
0.11623210E-05
0.88753850E-07
0.39915474E-06
0.37445020E-06
0.11165020E-06
0.79061042E-08
0.40218179E-07
0.73720805E-07
0.61968784E-07
0.29572682E-07
0.67459549E-08
0.75316803E-09
0.45861306E-08
0.99243271E-08
0.12112952E-07
0.10598323E-07
0.71549557E-08
0.36541907E-08
0.12415474E-08
0.18182716E-09
0.17398977E-09
0.72023759E-09
0.13397661E-08
0.17737720E-08
0.19157094E-08
0.17737686E-08
0.14526164E-08
0.10549494E-08
0.66602268E-09
0.35577222E-09
0.14813767E-09
0.36746224E-10
0.80565580E-11
0.37086657E-10
0.96879949E-10
0.16549860E-09
0.22593320E-09
0.26904307E-09
0.29062702E-09
0.29087172E-09
0.27316002E-09
0.24222185E-09
0.20347543E-09
0.16211209E-09
0.12152529E-09
0.85189820E-10
0.55277373E-10
0.31944915E-10
0.15474016E-10
0.55878674E-11
0.12595158E-11
0.13004083E-11
0.45412680E-11
0.97903994E-11
0.16064752E-10
0.22596302E-10
0.28651637E-10
0.33791581E-10
0.37698684E-10
0.40318224E-10
0.41583157E-10
0.41615753E-10
0.40554712E-10
0.38542156E-10
0.35785121E-10
0.32517860E-10
0.28962620E-10
