atomic number =   64
effective nuclear charge =   64
electron count =   48
net charge =   16
basis set = approximate basis set limit (UGBS)      
exchange correlation functional = PW91PW91            
cutoff radius (picometer) =  400
number of shells =   75
prepared by = Thomas A. Manz      
prepared date = July 2010           
net magnetization =    0
density in atomic units:
0.38285594E+05
0.28420187E+03
0.88303062E+02
0.24595318E+02
0.14847460E+02
0.10270615E+02
0.60858955E+01
0.31817918E+01
0.15805693E+01
0.81247002E+00
0.44889393E+00
0.26721886E+00
0.16911350E+00
0.11307044E+00
0.77731259E-01
0.53951848E-01
0.37346203E-01
0.25787413E-01
0.17829914E-01
0.12316843E-01
0.84839128E-02
0.58146794E-02
0.39528124E-02
0.26868542E-02
0.18245124E-02
0.12361786E-02
0.83677372E-03
0.56740391E-03
0.38059390E-03
0.25491742E-03
0.17281823E-03
0.11690749E-03
0.78248566E-04
0.52186871E-04
0.35177196E-04
0.23724271E-04
0.15898358E-04
0.10714154E-04
0.72748471E-05
0.49187461E-05
0.33138426E-05
0.22528720E-05
0.15356048E-05
0.10459640E-05
0.71483288E-06
0.48883919E-06
0.33467552E-06
0.22890066E-06
0.15577342E-06
0.10600143E-06
0.72018885E-07
0.48884861E-07
0.32948030E-07
0.22106603E-07
0.14832908E-07
0.98489101E-08
0.64659367E-08
0.42171897E-08
0.27305926E-08
0.17444549E-08
0.10973235E-08
0.68310141E-09
0.41888895E-09
0.25227936E-09
0.14954832E-09
0.88160562E-10
0.52775166E-10
0.32966907E-10
0.22581138E-10
0.17629894E-10
0.15529553E-10
0.14749172E-10
0.14467801E-10
0.14230274E-10
0.13837530E-10
