atomic number =   82
effective nuclear charge =   82
electron count =   80
net charge =    2
basis set = approximate basis set limit (UGBS)      
exchange correlation functional = PW91PW91            
cutoff radius (picometer) =  500
number of shells =  100
prepared by = Thomas A. Manz      
prepared date = July 2010           
net magnetization =    0
density in atomic units:
0.58519762E+06
0.59852161E+03
0.12399548E+03
0.66014626E+02
0.34435173E+02
0.16300468E+02
0.79407792E+01
0.45955868E+01
0.32201474E+01
0.23810165E+01
0.17571150E+01
0.12990963E+01
0.93954587E+00
0.67030704E+00
0.48814136E+00
0.35821998E+00
0.26127091E+00
0.19392276E+00
0.14569357E+00
0.10988589E+00
0.84354252E-01
0.65782003E-01
0.51403187E-01
0.40411163E-01
0.32084100E-01
0.25553262E-01
0.20420162E-01
0.16441917E-01
0.13233818E-01
0.10699045E-01
0.86927861E-02
0.70540868E-02
0.57468638E-02
0.46946388E-02
0.38381855E-02
0.31344972E-02
0.25594917E-02
0.20924192E-02
0.17165620E-02
0.14065178E-02
0.11529124E-02
0.94567332E-03
0.77501364E-03
0.63836324E-03
0.52560569E-03
0.43072787E-03
0.35382528E-03
0.29189617E-03
0.24018394E-03
0.19766562E-03
0.16271170E-03
0.13377475E-03
0.11030231E-03
0.91107249E-04
0.75210090E-04
0.62044259E-04
0.51113988E-04
0.42122800E-04
0.34741181E-04
0.28681179E-04
0.23663521E-04
0.19519604E-04
0.16117365E-04
0.13299233E-04
0.10966171E-04
0.90671874E-05
0.74950258E-05
0.61789428E-05
0.50933168E-05
0.41943977E-05
0.34615355E-05
0.28569475E-05
0.23565949E-05
0.19447905E-05
0.16020674E-05
0.13198920E-05
0.10876624E-05
0.89565464E-06
0.73803392E-06
0.60905882E-06
0.50168507E-06
0.41276911E-06
0.33948379E-06
0.27913967E-06
0.22995081E-06
0.18964400E-06
0.15622241E-06
0.12870517E-06
0.10601415E-06
0.87132740E-07
0.71762294E-07
0.59042925E-07
0.48489099E-07
0.39906990E-07
0.32802319E-07
0.26951490E-07
0.22174744E-07
0.18213735E-07
0.14940159E-07
0.12263834E-07
