atomic number =   78
effective nuclear charge =   78
electron count =   28
net charge =   50
basis set = approximate basis set limit (UGBS)      
exchange correlation functional = PW91PW91            
cutoff radius (picometer) =  400
number of shells =   75
prepared by = Thomas A. Manz      
prepared date = July 2010           
net magnetization =    0
density in atomic units:
0.71490258E+05
0.33931781E+03
0.58770954E+02
0.57887444E+01
0.44813451E+00
0.27715357E-01
0.16480036E-02
0.10101081E-03
0.61498054E-05
0.50360200E-06
0.21025573E-06
0.15864856E-06
0.45182215E-07
0.29835707E-08
0.17462389E-07
0.31504939E-07
0.26183891E-07
0.12325811E-07
0.27179805E-08
0.30403333E-09
0.20177273E-08
0.43072763E-08
0.52159650E-08
0.45373207E-08
0.30454554E-08
0.15431251E-08
0.51609311E-09
0.71837265E-10
0.77493928E-10
0.31733674E-09
0.58503774E-09
0.77064549E-09
0.82931517E-09
0.76575818E-09
0.62556671E-09
0.45312054E-09
0.28513802E-09
0.15161515E-09
0.62605240E-10
0.15226169E-10
0.34859093E-11
0.16513095E-10
0.42648943E-10
0.72446146E-10
0.98584564E-10
0.11711071E-09
0.12630537E-09
0.12627946E-09
0.11846099E-09
0.10490600E-09
0.88057638E-10
0.70072094E-10
0.52482428E-10
0.36737776E-10
0.23801672E-10
0.13719946E-10
0.66206797E-11
0.23751261E-11
0.53493364E-12
0.58372827E-12
0.20134502E-11
0.43075227E-11
0.70425462E-11
0.98790412E-11
0.12510045E-10
0.14734745E-10
0.16425901E-10
0.17556907E-10
0.18104660E-10
0.18101512E-10
0.17635933E-10
0.16747860E-10
0.15547738E-10
0.14122433E-10
0.12573795E-10
