atomic number =   99
effective nuclear charge =   99
electron count =   86
net charge =   13
basis set = approximate basis set limit (UGBS)      
exchange correlation functional = PW91PW91            
cutoff radius (picometer) =  400
number of shells =   75
prepared by = Thomas A. Manz      
prepared date = July 2010           
net magnetization =    0
density in atomic units:
0.14859978E+06
0.44887918E+03
0.16279771E+03
0.65652328E+02
0.22775099E+02
0.11909199E+02
0.75317378E+01
0.44191184E+01
0.24673719E+01
0.14371110E+01
0.91962373E+00
0.64442217E+00
0.47958910E+00
0.36956874E+00
0.28707272E+00
0.22183092E+00
0.16946401E+00
0.12828326E+00
0.96745975E-01
0.72631404E-01
0.54288562E-01
0.40338762E-01
0.29758101E-01
0.21935880E-01
0.16157357E-01
0.11881990E-01
0.87356130E-02
0.64354138E-02
0.47031245E-02
0.34367726E-02
0.25366556E-02
0.18703475E-02
0.13685182E-02
0.99936500E-03
0.73635770E-03
0.54296630E-03
0.39864570E-03
0.29407846E-03
0.21824165E-03
0.16145542E-03
0.11913027E-03
0.88517336E-04
0.65889959E-04
0.49016082E-04
0.36555779E-04
0.27270422E-04
0.20368592E-04
0.15201242E-04
0.11309821E-04
0.84191715E-05
0.62670597E-05
0.46689102E-05
0.34651578E-05
0.25697695E-05
0.19103938E-05
0.14142813E-05
0.10420991E-05
0.76812557E-06
0.56623503E-06
0.41620297E-06
0.30495997E-06
0.22362394E-06
0.16362590E-06
0.11926822E-06
0.86692417E-07
0.62873177E-07
0.45628148E-07
0.32967179E-07
0.23718439E-07
0.17077367E-07
0.12312684E-07
0.88186463E-08
0.62968133E-08
0.44988488E-08
0.32203662E-08
