atomic number =   86
effective nuclear charge =   86
electron count =   80
net charge =    6
basis set = approximate basis set limit (UGBS)      
exchange correlation functional = PW91PW91            
cutoff radius (picometer) =  500
number of shells =  100
prepared by = Thomas A. Manz      
prepared date = July 2010           
net magnetization =    0
density in atomic units:
0.67837694E+06
0.63764954E+03
0.13409399E+03
0.73349953E+02
0.32897648E+02
0.14630569E+02
0.76213408E+01
0.49343462E+01
0.35835550E+01
0.25724964E+01
0.17893392E+01
0.12393469E+01
0.83856314E+00
0.56124741E+00
0.38714284E+00
0.27081481E+00
0.18875672E+00
0.13451590E+00
0.97327709E-01
0.70743196E-01
0.52418977E-01
0.39490893E-01
0.29759368E-01
0.22525640E-01
0.17198447E-01
0.13141015E-01
0.10049863E-01
0.77337101E-02
0.59321700E-02
0.45628496E-02
0.35236767E-02
0.27111585E-02
0.20925647E-02
0.16182251E-02
0.12510649E-02
0.96472265E-03
0.74292364E-03
0.57244598E-03
0.44265002E-03
0.34151066E-03
0.26336947E-03
0.20315133E-03
0.15642113E-03
0.12114830E-03
0.93739967E-04
0.72041752E-04
0.55499881E-04
0.42993819E-04
0.33177628E-04
0.25600730E-04
0.19762629E-04
0.15229475E-04
0.11784956E-04
0.91430475E-05
0.70907317E-05
0.54973639E-05
0.42578749E-05
0.33032570E-05
0.25667962E-05
0.19997044E-05
0.15593250E-05
0.12165690E-05
0.95195742E-06
0.74531937E-06
0.58389480E-06
0.45957120E-06
0.36213524E-06
0.28473644E-06
0.22413933E-06
0.17637423E-06
0.13927800E-06
0.11006149E-06
0.86911264E-07
0.68735069E-07
0.54251821E-07
0.42793729E-07
0.33749998E-07
0.26573845E-07
0.20926151E-07
0.16497513E-07
0.12959686E-07
0.10146422E-07
0.79164089E-08
0.61616885E-08
0.47902282E-08
0.37193519E-08
0.28719378E-08
0.22066009E-08
0.16876689E-08
0.12774245E-08
0.96320518E-09
0.71943967E-09
0.53075599E-09
0.38825029E-09
0.27985478E-09
0.19830551E-09
0.13837709E-09
0.94196234E-10
0.62562247E-10
0.40836699E-10
