atomic number =   96
effective nuclear charge =   96
electron count =   86
net charge =   10
basis set = approximate basis set limit (UGBS)      
exchange correlation functional = PW91PW91            
cutoff radius (picometer) =  300
number of shells =   50
prepared by = Thomas A. Manz      
prepared date = July 2010           
net magnetization =    0
density in atomic units:
0.13600214E+06
0.32343774E+03
0.11904533E+03
0.39454197E+02
0.14757386E+02
0.82920046E+01
0.49020963E+01
0.27891614E+01
0.15579144E+01
0.93884349E+00
0.61836433E+00
0.44031924E+00
0.33379823E+00
0.25394347E+00
0.19313361E+00
0.14487417E+00
0.10705946E+00
0.79439133E-01
0.58039285E-01
0.42088024E-01
0.30399652E-01
0.21862019E-01
0.15729759E-01
0.11291307E-01
0.80750650E-02
0.57581039E-02
0.41074064E-02
0.29523259E-02
0.21076594E-02
0.15006867E-02
0.10729911E-02
0.76598546E-03
0.54916827E-03
0.39328515E-03
0.28193751E-03
0.20341652E-03
0.14734024E-03
0.10666176E-03
0.76919307E-04
0.55724002E-04
0.40526116E-04
0.29304536E-04
0.21253903E-04
0.15436799E-04
0.11172312E-04
0.80992686E-05
0.58501200E-05
0.42171710E-05
0.30340370E-05
0.21845010E-05
