atomic number =   15
effective nuclear charge =   15
electron count =   12
net charge =    3
basis set = approximate basis set limit (UGBS)      
exchange correlation functional = PW91PW91            
cutoff radius (picometer) =  400
number of shells =   75
prepared by = Thomas A. Manz      
prepared date = July 2010           
net magnetization =    0
density in atomic units:
0.44050949E+03
0.35334930E+02
0.15578422E+02
0.10061580E+02
0.58314791E+01
0.30150545E+01
0.15312500E+01
0.76443708E+00
0.38618615E+00
0.21235572E+00
0.13213514E+00
0.93155332E-01
0.72317272E-01
0.59804343E-01
0.50779149E-01
0.43354470E-01
0.36820076E-01
0.31031823E-01
0.26011158E-01
0.21656545E-01
0.17921850E-01
0.14718805E-01
0.11996286E-01
0.97410865E-02
0.78846272E-02
0.63589243E-02
0.51164804E-02
0.41153794E-02
0.32856560E-02
0.26203119E-02
0.21025857E-02
0.16846689E-02
0.13412382E-02
0.10656381E-02
0.85173827E-03
0.68046275E-03
0.54142275E-03
0.43183553E-03
0.34559402E-03
0.27556843E-03
0.21904435E-03
0.17482378E-03
0.13956458E-03
0.11126159E-03
0.88813293E-04
0.70872469E-04
0.56597000E-04
0.45165503E-04
0.35968809E-04
0.28670531E-04
0.22868677E-04
0.18264042E-04
0.14560586E-04
0.11612294E-04
0.92892215E-05
0.74133713E-05
0.59049357E-05
0.47089161E-05
0.37604880E-05
0.29997088E-05
0.23899852E-05
0.19076392E-05
0.15220273E-05
0.12126121E-05
0.96532096E-06
0.76829741E-06
0.61248943E-06
0.48741742E-06
0.38736218E-06
0.30852001E-06
0.24628434E-06
0.19585771E-06
0.15558976E-06
0.12379213E-06
0.98709414E-07
