atomic number =   98
effective nuclear charge =   98
electron count =   86
net charge =   12
basis set = approximate basis set limit (UGBS)      
exchange correlation functional = PW91PW91            
cutoff radius (picometer) =  300
number of shells =   50
prepared by = Thomas A. Manz      
prepared date = July 2010           
net magnetization =    0
density in atomic units:
0.14434725E+06
0.33044409E+03
0.12140751E+03
0.37859280E+02
0.14792455E+02
0.84248619E+01
0.47795625E+01
0.26300435E+01
0.14553870E+01
0.88882911E+00
0.59688109E+00
0.42918423E+00
0.32461384E+00
0.24455398E+00
0.18351015E+00
0.13559781E+00
0.98675393E-01
0.72173923E-01
0.51994793E-01
0.37196182E-01
0.26524117E-01
0.18842239E-01
0.13400090E-01
0.95139826E-02
0.67322836E-02
0.47522453E-02
0.33566265E-02
0.23903837E-02
0.16906736E-02
0.11926322E-02
0.84506680E-03
0.59781340E-03
0.42477329E-03
0.30149636E-03
0.21423095E-03
0.15324522E-03
0.11007315E-03
0.79030695E-04
0.56520264E-04
0.40619401E-04
0.29312439E-04
0.21031399E-04
0.15132590E-04
0.10905786E-04
0.78304856E-05
0.56301074E-05
0.40331970E-05
0.28815932E-05
0.20547966E-05
0.14653884E-05
