atomic number =   10
effective nuclear charge =   10
electron count =    4
net charge =    6
basis set = approximate basis set limit (UGBS)      
exchange correlation functional = PW91PW91            
cutoff radius (picometer) =  400
number of shells =   75
prepared by = Thomas A. Manz      
prepared date = July 2010           
net magnetization =    0
density in atomic units:
0.16585747E+03
0.26235872E+02
0.44564719E+01
0.11907275E+01
0.71318561E+00
0.56502783E+00
0.44007590E+00
0.32094711E+00
0.22359163E+00
0.15235412E+00
0.10323838E+00
0.69410585E-01
0.46282552E-01
0.30963538E-01
0.20688869E-01
0.13777145E-01
0.91202985E-02
0.60410146E-02
0.40295697E-02
0.27029866E-02
0.18182729E-02
0.12237683E-02
0.82084443E-03
0.55316545E-03
0.37397406E-03
0.25328284E-03
0.17198983E-03
0.11738930E-03
0.79528007E-04
0.53958651E-04
0.37129623E-04
0.25550624E-04
0.17437023E-04
0.11879621E-04
0.81852822E-05
0.56474355E-05
0.38757275E-05
0.26746698E-05
0.18588893E-05
0.12865590E-05
0.88704360E-06
0.61631090E-06
0.42894249E-06
0.29806239E-06
0.20758202E-06
0.14452735E-06
0.10066387E-06
0.69990449E-07
0.48410492E-07
0.33472034E-07
0.23109346E-07
0.15947883E-07
0.10938749E-07
0.74785405E-08
0.51205413E-08
0.34783616E-08
0.23443114E-08
0.15757163E-08
0.10564072E-08
0.70321055E-09
0.46434431E-09
0.30582739E-09
0.19994245E-09
0.12944594E-09
0.83048284E-10
0.52814673E-10
0.33388119E-10
0.20826493E-10
0.12822303E-10
0.78426111E-11
0.47750358E-11
0.28580640E-11
0.16884578E-11
0.99949519E-12
0.59821874E-12
