atomic number =   85
effective nuclear charge =   85
electron count =   60
net charge =   25
basis set = approximate basis set limit (UGBS)      
exchange correlation functional = PW91PW91            
cutoff radius (picometer) =  300
number of shells =   50
prepared by = Thomas A. Manz      
prepared date = July 2010           
net magnetization =    0
density in atomic units:
0.94197773E+05
0.28666852E+03
0.86362663E+02
0.44219578E+02
0.16640125E+02
0.48466859E+01
0.13702121E+01
0.42494518E+00
0.13063824E+00
0.42384461E-01
0.13847751E-01
0.44298903E-02
0.15443615E-02
0.53875858E-03
0.19574536E-03
0.73006893E-04
0.26841661E-04
0.10288256E-04
0.37846580E-05
0.13643718E-05
0.48990609E-06
0.17497089E-06
0.62262515E-07
0.21337899E-07
0.68734707E-08
0.24836309E-08
0.16891337E-08
0.18766730E-08
0.20717026E-08
0.19979107E-08
0.16845780E-08
0.12539862E-08
0.83417362E-09
0.49664489E-09
0.27635152E-09
0.16967852E-09
0.14708279E-09
0.17629159E-09
0.22801282E-09
0.27767036E-09
0.31120914E-09
0.32325478E-09
0.31347042E-09
0.28586541E-09
0.24634803E-09
0.20154393E-09
0.15623527E-09
0.11488240E-09
0.80214092E-10
0.53701481E-10
