atomic number =   78
effective nuclear charge =   78
electron count =   68
net charge =   10
basis set = approximate basis set limit (UGBS)      
exchange correlation functional = PW91PW91            
cutoff radius (picometer) =  400
number of shells =   75
prepared by = Thomas A. Manz      
prepared date = July 2010           
net magnetization =    0
density in atomic units:
0.72171906E+05
0.39478253E+03
0.95001076E+02
0.53092796E+02
0.31009308E+02
0.14261294E+02
0.66371136E+01
0.34774847E+01
0.20600991E+01
0.13267212E+01
0.88024390E+00
0.58094484E+00
0.37667835E+00
0.24238887E+00
0.15422726E+00
0.96991800E-01
0.60212906E-01
0.37244126E-01
0.23151126E-01
0.14456701E-01
0.90354038E-02
0.56402585E-02
0.34967177E-02
0.21752627E-02
0.13553338E-02
0.84486417E-03
0.52780536E-03
0.33159746E-03
0.20649181E-03
0.12880610E-03
0.81758604E-04
0.51883570E-04
0.32569205E-04
0.20366100E-04
0.12884321E-04
0.81468361E-05
0.51021407E-05
0.32098676E-05
0.20335663E-05
0.12805882E-05
0.80293489E-06
0.50958658E-06
0.32553609E-06
0.20884731E-06
0.13547213E-06
0.88731987E-07
0.58786018E-07
0.39345451E-07
0.26512629E-07
0.18049914E-07
0.12393579E-07
0.85639247E-08
0.59142073E-08
0.40802828E-08
0.28185607E-08
0.19223754E-08
0.12912600E-08
0.85543955E-09
0.55721733E-09
0.35347128E-09
0.21795681E-09
0.13193609E-09
0.79444361E-10
0.49852161E-10
0.35696265E-10
0.31273928E-10
0.32527522E-10
0.36659696E-10
0.41723337E-10
0.46548435E-10
0.50376068E-10
0.52831631E-10
0.53846975E-10
0.53394129E-10
0.51708266E-10
