atomic number =   78
effective nuclear charge =   78
electron count =   18
net charge =   60
basis set = approximate basis set limit (UGBS)      
exchange correlation functional = PW91PW91            
cutoff radius (picometer) =  300
number of shells =   50
prepared by = Thomas A. Manz      
prepared date = July 2010           
net magnetization =    0
density in atomic units:
0.71161273E+05
0.11194321E+03
0.14511390E+02
0.84225255E+00
0.39941706E-01
0.13232302E-02
0.36648289E-04
0.20793104E-05
0.12012438E-06
0.18270863E-06
0.12028133E-06
0.14964629E-07
0.88710239E-08
0.29209556E-07
0.28309852E-07
0.13375014E-07
0.24107063E-08
0.44251200E-09
0.28014369E-08
0.49103139E-08
0.49740945E-08
0.35336167E-08
0.17997936E-08
0.57013444E-09
0.63880221E-10
0.11302395E-09
0.40440384E-09
0.67899975E-09
0.81893531E-09
0.79650447E-09
0.65625699E-09
0.46288623E-09
0.27697550E-09
0.13175565E-09
0.42450085E-10
0.62601686E-11
0.84696399E-11
0.33384729E-10
0.66891694E-10
0.97109230E-10
0.11777630E-09
0.12687565E-09
0.12448841E-09
0.11310588E-09
0.95756958E-10
0.75859236E-10
0.55810735E-10
0.37761357E-10
0.22978171E-10
0.12107003E-10
