atomic number =  100
effective nuclear charge =  100
electron count =   10
net charge =   90
basis set = approximate basis set limit (UGBS)      
exchange correlation functional = PW91PW91            
cutoff radius (picometer) =  300
number of shells =   50
prepared by = Thomas A. Manz      
prepared date = July 2010           
net magnetization =    0
density in atomic units:
0.14494816E+06
0.11070912E+01
0.37822226E-03
0.45953468E-04
0.10407721E-04
0.28468608E-05
0.19870054E-05
0.10637349E-05
0.83336303E-07
0.35670482E-06
0.24092853E-06
0.30763164E-07
0.17143769E-07
0.57141218E-07
0.55745375E-07
0.26496570E-07
0.48340469E-08
0.82602564E-09
0.53847908E-08
0.95237667E-08
0.96840136E-08
0.68943726E-08
0.35177745E-08
0.11147216E-08
0.11990800E-09
0.20941926E-09
0.77404377E-09
0.13084760E-08
0.15824722E-08
0.15411653E-08
0.12703046E-08
0.89601099E-09
0.53570565E-09
0.25415964E-09
0.80998361E-10
0.10802395E-10
0.15053302E-10
0.63328648E-10
0.12826283E-09
0.18684275E-09
0.22686349E-09
0.24450736E-09
0.23994398E-09
0.21800334E-09
0.18451619E-09
0.14607397E-09
0.10736267E-09
0.72521461E-10
0.44007280E-10
0.23060375E-10
