atomic number =  100
effective nuclear charge =  100
electron count =    2
net charge =   98
basis set = approximate basis set limit (UGBS)      
exchange correlation functional = PW91PW91            
cutoff radius (picometer) =  300
number of shells =   50
prepared by = Thomas A. Manz      
prepared date = July 2010           
net magnetization =    0
density in atomic units:
0.12448580E+06
0.10667120E-02
0.84703119E-04
0.27211167E-04
0.59142180E-05
0.16491152E-05
0.11224802E-05
0.60693850E-06
0.44405720E-07
0.20127234E-06
0.13609746E-06
0.16826297E-07
0.93567980E-08
0.32179425E-07
0.31380456E-07
0.14815350E-07
0.26079179E-08
0.40354886E-09
0.30175333E-08
0.53614988E-08
0.54422169E-08
0.38594461E-08
0.19536932E-08
0.60507072E-09
0.53429362E-10
0.11172900E-09
0.43441425E-09
0.73675366E-09
0.89021301E-09
0.86507279E-09
0.71106088E-09
0.49953336E-09
0.29679864E-09
0.13900099E-09
0.42579433E-10
0.41519501E-11
0.74539932E-11
0.35271699E-10
0.72173406E-10
0.10525380E-09
0.12774921E-09
0.13746981E-09
0.13467190E-09
0.12211852E-09
0.10313678E-09
0.81434158E-10
0.59647461E-10
0.40103035E-10
0.24142924E-10
0.12467139E-10
