atomic number =   55
effective nuclear charge =   55
electron count =    4
net charge =   51
basis set = approximate basis set limit (UGBS)      
exchange correlation functional = PW91PW91            
cutoff radius (picometer) =  300
number of shells =   50
prepared by = Thomas A. Manz      
prepared date = July 2010           
net magnetization =    0
density in atomic units:
0.22357230E+05
0.15353398E+02
0.27301547E+00
0.29670394E-02
0.41453233E-04
0.93945744E-06
0.21786866E-06
0.11692538E-06
0.99225002E-08
0.43758323E-07
0.28174771E-07
0.32267784E-08
0.22304589E-08
0.71339721E-08
0.67779045E-08
0.31303615E-08
0.52562321E-09
0.98813936E-10
0.68947564E-09
0.11948262E-08
0.11981358E-08
0.84173746E-09
0.42155279E-09
0.12800529E-09
0.10664768E-10
0.26503353E-10
0.98909714E-10
0.16551016E-09
0.19856078E-09
0.19200751E-09
0.15722054E-09
0.11002376E-09
0.65071427E-10
0.30253255E-10
0.91236489E-11
0.84591649E-12
0.17720778E-11
0.80696066E-11
0.16317645E-10
0.23661620E-10
0.28618878E-10
0.30722039E-10
0.30046136E-10
0.27202950E-10
0.22941309E-10
0.18090302E-10
0.13229880E-10
0.88779487E-11
0.53302289E-11
0.27412322E-11
