atomic number =   92
effective nuclear charge =   92
electron count =   86
net charge =    6
basis set = approximate basis set limit (UGBS)      
exchange correlation functional = PW91PW91            
cutoff radius (picometer) =  400
number of shells =   75
prepared by = Thomas A. Manz      
prepared date = July 2010           
net magnetization =    0
density in atomic units:
0.11999756E+06
0.44058185E+03
0.13840671E+03
0.70307373E+02
0.25944418E+02
0.11314457E+02
0.71468730E+01
0.47469397E+01
0.29776919E+01
0.18222504E+01
0.11465811E+01
0.76341158E+00
0.54257923E+00
0.41032594E+00
0.32135534E+00
0.25525954E+00
0.20280029E+00
0.16052379E+00
0.12672013E+00
0.99505566E-01
0.77695385E-01
0.60209773E-01
0.46269082E-01
0.35449240E-01
0.27083237E-01
0.20620830E-01
0.15666738E-01
0.11904269E-01
0.89653805E-02
0.67435061E-02
0.51130075E-02
0.38699384E-02
0.29065751E-02
0.21780869E-02
0.16450322E-02
0.12427764E-02
0.93488826E-03
0.70609653E-03
0.53608249E-03
0.40564191E-03
0.30606554E-03
0.23232317E-03
0.17655983E-03
0.13403881E-03
0.10196089E-03
0.77551878E-04
0.59035745E-04
0.44902121E-04
0.34048753E-04
0.25836463E-04
0.19605392E-04
0.14893498E-04
0.11279472E-04
0.85389820E-05
0.64840883E-05
0.49061600E-05
0.37021196E-05
0.27939541E-05
0.21126118E-05
0.15931016E-05
0.11996315E-05
0.90394036E-06
0.68068118E-06
0.51119986E-06
0.38325669E-06
0.28696095E-06
0.21501575E-06
0.16049674E-06
0.11938209E-06
0.88836700E-07
0.66148083E-07
0.48889511E-07
0.35966714E-07
0.26428809E-07
0.19413756E-07
