atomic number =   88
effective nuclear charge =   88
electron count =   60
net charge =   28
basis set = approximate basis set limit (UGBS)      
exchange correlation functional = PW91PW91            
cutoff radius (picometer) =  300
number of shells =   50
prepared by = Thomas A. Manz      
prepared date = July 2010           
net magnetization =    0
density in atomic units:
0.10471741E+06
0.29355545E+03
0.94071548E+02
0.43907990E+02
0.14678203E+02
0.37923427E+01
0.95426273E+00
0.26548383E+00
0.72344072E-01
0.20762281E-01
0.60141091E-02
0.16880578E-02
0.51374087E-03
0.15429113E-03
0.48470949E-04
0.15996819E-04
0.53010904E-05
0.18658831E-05
0.63080404E-06
0.21007089E-06
0.71537286E-07
0.25224050E-07
0.88597600E-08
0.26691485E-08
0.65575795E-09
0.59159849E-09
0.12562342E-08
0.19206727E-08
0.22735875E-08
0.22333393E-08
0.18975197E-08
0.14175393E-08
0.94096708E-09
0.55200816E-09
0.29423927E-09
0.16708127E-09
0.13863771E-09
0.17252362E-09
0.23487731E-09
0.29659314E-09
0.34045772E-09
0.35953418E-09
0.35262201E-09
0.32423017E-09
0.28111549E-09
0.23080650E-09
0.17918544E-09
0.13146051E-09
0.91087214E-10
0.59976774E-10
