atomic number =   90
effective nuclear charge =   90
electron count =   80
net charge =   10
basis set = approximate basis set limit (UGBS)      
exchange correlation functional = PW91PW91            
cutoff radius (picometer) =  300
number of shells =   50
prepared by = Thomas A. Manz      
prepared date = July 2010           
net magnetization =    0
density in atomic units:
0.11236070E+06
0.30436127E+03
0.10668652E+03
0.43917534E+02
0.15389375E+02
0.74815011E+01
0.48239741E+01
0.31306503E+01
0.18908712E+01
0.11118758E+01
0.64111084E+00
0.37252972E+00
0.23025139E+00
0.14414746E+00
0.92487864E-01
0.59921402E-01
0.38978122E-01
0.26044862E-01
0.17299879E-01
0.11491423E-01
0.76410249E-02
0.50685918E-02
0.33679409E-02
0.22323285E-02
0.14720206E-02
0.96665946E-03
0.63437800E-03
0.42003821E-03
0.27561857E-03
0.18011886E-03
0.11829748E-03
0.77508193E-04
0.51048697E-04
0.33575710E-04
0.22112466E-04
0.14683263E-04
0.97996508E-05
0.65367176E-05
0.43392502E-05
0.28959123E-05
0.19416975E-05
0.12914883E-05
0.86071566E-06
0.57351730E-06
0.37933424E-06
0.25040879E-06
0.16370294E-06
0.10605470E-06
0.67973779E-07
0.43188255E-07
