atomic number =   86
effective nuclear charge =   86
electron count =   28
net charge =   58
basis set = approximate basis set limit (UGBS)      
exchange correlation functional = PW91PW91            
cutoff radius (picometer) =  300
number of shells =   50
prepared by = Thomas A. Manz      
prepared date = July 2010           
net magnetization =    0
density in atomic units:
0.96748945E+05
0.22791475E+03
0.16261734E+02
0.61768347E+00
0.20983560E-01
0.57940331E-03
0.13627125E-04
0.87991822E-06
0.64606056E-07
0.24094024E-06
0.18239044E-06
0.35559989E-07
0.14232353E-07
0.38115186E-07
0.39616808E-07
0.21346919E-07
0.58312257E-08
0.15649498E-08
0.36773669E-08
0.63424674E-08
0.67395969E-08
0.51325681E-08
0.29283926E-08
0.12032330E-08
0.35134229E-09
0.24822511E-09
0.53127425E-09
0.86206420E-09
0.10622782E-08
0.10692305E-08
0.91896979E-09
0.68556982E-09
0.44544515E-09
0.24535982E-09
0.11093167E-09
0.44272579E-10
0.30121211E-10
0.49972210E-10
0.86110168E-10
0.12270905E-09
0.15030042E-09
0.16500841E-09
0.16544796E-09
0.15411843E-09
0.13430158E-09
0.11009516E-09
0.84614538E-10
0.60722496E-10
0.40348627E-10
0.24588291E-10
