atomic number =   60
effective nuclear charge =   60
electron count =   54
net charge =    6
basis set = approximate basis set limit (UGBS)      
exchange correlation functional = PW91PW91            
cutoff radius (picometer) =  400
number of shells =   75
prepared by = Thomas A. Manz      
prepared date = July 2010           
net magnetization =    0
density in atomic units:
0.31066682E+05
0.25321896E+03
0.91559700E+02
0.26032602E+02
0.13085378E+02
0.96468287E+01
0.64167452E+01
0.37190776E+01
0.20413592E+01
0.11747894E+01
0.75167221E+00
0.53600597E+00
0.41253418E+00
0.33175629E+00
0.26989660E+00
0.21846718E+00
0.17459010E+00
0.13787290E+00
0.10810978E+00
0.84139742E-01
0.65056279E-01
0.49911547E-01
0.37975959E-01
0.28821759E-01
0.21826288E-01
0.16481504E-01
0.12427163E-01
0.93782935E-02
0.70183566E-02
0.52487054E-02
0.39594099E-02
0.29827699E-02
0.22304123E-02
0.16644545E-02
0.12523570E-02
0.94277394E-03
0.70684054E-03
0.53218612E-03
0.40286672E-03
0.30398602E-03
0.22876186E-03
0.17321092E-03
0.13134071E-03
0.99496116E-04
0.75532880E-04
0.57340643E-04
0.43574233E-04
0.33086038E-04
0.25048870E-04
0.18978148E-04
0.14380647E-04
0.10909135E-04
0.82503675E-05
0.62378499E-05
0.47303715E-05
0.35750661E-05
0.26933280E-05
0.20304947E-05
0.15330497E-05
0.11545126E-05
0.86830227E-06
0.65370460E-06
0.49163174E-06
0.36868704E-06
0.27587780E-06
0.20625458E-06
0.15430052E-06
0.11500531E-06
0.85404579E-07
0.63456575E-07
0.47166299E-07
0.34794041E-07
0.25543912E-07
0.18722465E-07
0.13712609E-07
