atomic number =   81
effective nuclear charge =   81
electron count =   48
net charge =   33
basis set = approximate basis set limit (UGBS)      
exchange correlation functional = PW91PW91            
cutoff radius (picometer) =  400
number of shells =   75
prepared by = Thomas A. Manz      
prepared date = July 2010           
net magnetization =    0
density in atomic units:
0.81245742E+05
0.38400119E+03
0.70381462E+02
0.37028233E+02
0.19799006E+02
0.77698812E+01
0.29529762E+01
0.12289289E+01
0.57808787E+00
0.30634388E+00
0.17121412E+00
0.96073374E-01
0.52897908E-01
0.28926631E-01
0.15600128E-01
0.82880883E-02
0.43247812E-02
0.22464965E-02
0.11732113E-02
0.61676285E-03
0.32370398E-03
0.16944540E-03
0.87446067E-04
0.45179822E-04
0.23272931E-04
0.11937375E-04
0.61128067E-05
0.31432076E-05
0.15934870E-05
0.80847906E-06
0.42201893E-06
0.22132733E-06
0.11522106E-06
0.60182025E-07
0.32314070E-07
0.17543650E-07
0.94964481E-08
0.52177307E-08
0.29216447E-08
0.16517470E-08
0.96506259E-09
0.61623290E-09
0.44361062E-09
0.36310085E-09
0.32781969E-09
0.31025360E-09
0.29575942E-09
0.27747443E-09
0.25319571E-09
0.22355692E-09
0.19067842E-09
0.15695008E-09
0.12422975E-09
0.94633135E-10
0.69674821E-10
0.49424919E-10
0.34163648E-10
0.23856132E-10
0.17858891E-10
0.15365972E-10
0.15582398E-10
0.17681434E-10
0.20925253E-10
0.24693081E-10
0.28451054E-10
0.31789568E-10
0.34433512E-10
0.36271940E-10
0.37257572E-10
0.37278229E-10
0.36480798E-10
0.35003788E-10
0.32933704E-10
0.30433690E-10
0.27658476E-10
