atomic number =   64
effective nuclear charge =   64
electron count =    4
net charge =   60
basis set = approximate basis set limit (UGBS)      
exchange correlation functional = PW91PW91            
cutoff radius (picometer) =  300
number of shells =   50
prepared by = Thomas A. Manz      
prepared date = July 2010           
net magnetization =    0
density in atomic units:
0.36634570E+05
0.89828568E+01
0.61084624E-01
0.21974702E-03
0.35065636E-05
0.46300087E-06
0.32743779E-06
0.16781229E-06
0.13426565E-07
0.59896962E-07
0.39247073E-07
0.46261786E-08
0.29490583E-08
0.96860635E-08
0.92930561E-08
0.43286748E-08
0.74065176E-09
0.12884355E-09
0.92422964E-09
0.16172992E-08
0.16295801E-08
0.11492007E-08
0.57806909E-09
0.17693780E-09
0.15097057E-10
0.34966547E-10
0.13267053E-09
0.22321592E-09
0.26852948E-09
0.26021960E-09
0.21343152E-09
0.14959135E-09
0.88644196E-10
0.41335713E-10
0.12550867E-10
0.11887379E-11
0.23328030E-11
0.10797530E-10
0.21938571E-10
0.31892388E-10
0.38628434E-10
0.41532756E-10
0.40624185E-10
0.36810142E-10
0.31058000E-10
0.24504130E-10
0.17932456E-10
0.12042469E-10
0.72390631E-11
0.37292951E-11
