atomic number =   91
effective nuclear charge =   91
electron count =   78
net charge =   13
basis set = approximate basis set limit (UGBS)      
exchange correlation functional = PW91PW91            
cutoff radius (picometer) =  300
number of shells =   50
prepared by = Thomas A. Manz      
prepared date = July 2010           
net magnetization =    0
density in atomic units:
0.11609981E+06
0.30700940E+03
0.10894965E+03
0.43242966E+02
0.14983092E+02
0.74716830E+01
0.48455963E+01
0.30917854E+01
0.17992405E+01
0.99465245E+00
0.52090937E+00
0.26392338E+00
0.13867800E+00
0.71282350E-01
0.36602017E-01
0.18583549E-01
0.92920531E-02
0.48149968E-02
0.24674309E-02
0.12670251E-02
0.65354427E-03
0.33610148E-03
0.17311050E-03
0.88696419E-04
0.45016419E-04
0.22753673E-04
0.11559202E-04
0.60296611E-05
0.31538414E-05
0.16709701E-05
0.91022940E-06
0.50284876E-06
0.28340673E-06
0.16046455E-06
0.90858045E-07
0.51584585E-07
0.29007849E-07
0.15948094E-07
0.84637088E-08
0.43986672E-08
0.22578555E-08
0.11582176E-08
0.64636657E-09
0.43017864E-09
0.34776645E-09
0.31852912E-09
0.30155667E-09
0.28085562E-09
0.25234484E-09
0.21818715E-09
