atomic number =   93
effective nuclear charge =   93
electron count =   80
net charge =   13
basis set = approximate basis set limit (UGBS)      
exchange correlation functional = PW91PW91            
cutoff radius (picometer) =  300
number of shells =   50
prepared by = Thomas A. Manz      
prepared date = July 2010           
net magnetization =    0
density in atomic units:
0.12390760E+06
0.31321341E+03
0.11352010E+03
0.41803371E+02
0.14707012E+02
0.77708621E+01
0.49082975E+01
0.29952111E+01
0.16973983E+01
0.94676906E+00
0.52475119E+00
0.29727578E+00
0.18146460E+00
0.11284820E+00
0.72045118E-01
0.46395633E-01
0.29931996E-01
0.19805996E-01
0.13006579E-01
0.85339472E-02
0.56035621E-02
0.36706470E-02
0.24093292E-02
0.15781434E-02
0.10285784E-02
0.66773791E-03
0.43332257E-03
0.28384765E-03
0.18426204E-03
0.11914256E-03
0.77441888E-04
0.50229271E-04
0.32760574E-04
0.21349948E-04
0.13936535E-04
0.91813836E-05
0.60831649E-05
0.40314403E-05
0.26606469E-05
0.17669367E-05
0.11796802E-05
0.78162088E-06
0.51911655E-06
0.34481886E-06
0.22737063E-06
0.14963173E-06
0.97531419E-07
0.62980355E-07
0.40210317E-07
0.25413080E-07
