atomic number =   74
effective nuclear charge =   74
electron count =   68
net charge =    6
basis set = approximate basis set limit (UGBS)      
exchange correlation functional = PW91PW91            
cutoff radius (picometer) =  500
number of shells =  100
prepared by = Thomas A. Manz      
prepared date = July 2010           
net magnetization =    0
density in atomic units:
0.42248200E+06
0.51208295E+03
0.11789832E+03
0.47079205E+02
0.31230574E+02
0.18479435E+02
0.97444010E+01
0.50411892E+01
0.29341025E+01
0.18848712E+01
0.12900399E+01
0.92518848E+00
0.65894002E+00
0.46231225E+00
0.32835317E+00
0.23203020E+00
0.16010194E+00
0.11067700E+00
0.76196946E-01
0.51682003E-01
0.35256520E-01
0.24227055E-01
0.16466673E-01
0.11163802E-01
0.76154629E-02
0.51809400E-02
0.35200594E-02
0.24103830E-02
0.16422311E-02
0.11233527E-02
0.77338365E-03
0.52988698E-03
0.36490438E-03
0.25208489E-03
0.17411035E-03
0.11979530E-03
0.82238905E-04
0.56470839E-04
0.38952076E-04
0.26774595E-04
0.18379860E-04
0.12622963E-04
0.86440941E-05
0.59732415E-05
0.41245385E-05
0.28226557E-05
0.19398606E-05
0.13450107E-05
0.92840833E-06
0.64109355E-06
0.44308788E-06
0.30555941E-06
0.21180230E-06
0.14732500E-06
0.10230631E-06
0.70918730E-07
0.49017626E-07
0.33896811E-07
0.23480094E-07
0.16308988E-07
0.11341700E-07
0.79091498E-08
0.55547060E-08
0.39264374E-08
0.28015601E-08
0.20359028E-08
0.15051899E-08
0.11327846E-08
0.87367985E-09
0.68957801E-09
0.56043503E-09
0.46561843E-09
0.39441281E-09
0.34004216E-09
0.29645525E-09
0.26073840E-09
0.22973441E-09
0.20315380E-09
0.17944080E-09
0.15796212E-09
0.13807212E-09
0.12008955E-09
0.10340690E-09
0.88158918E-10
0.74398411E-10
0.62425280E-10
0.51432129E-10
0.41937787E-10
0.33709865E-10
0.26639505E-10
0.20841422E-10
0.16097713E-10
0.12322558E-10
0.95251983E-11
0.75215927E-11
0.61926319E-11
0.54981505E-11
0.52967769E-11
0.54927629E-11
0.60208284E-11
