atomic number =   60
effective nuclear charge =   60
electron count =   48
net charge =   12
basis set = approximate basis set limit (UGBS)      
exchange correlation functional = PW91PW91            
cutoff radius (picometer) =  500
number of shells =  100
prepared by = Thomas A. Manz      
prepared date = July 2010           
net magnetization =    0
density in atomic units:
0.21314625E+06
0.37709296E+03
0.11807941E+03
0.30824083E+02
0.13206396E+02
0.10261540E+02
0.74711728E+01
0.46794667E+01
0.27516687E+01
0.15577021E+01
0.87744540E+00
0.52131647E+00
0.31843019E+00
0.20223252E+00
0.13805115E+00
0.97726084E-01
0.69514364E-01
0.50375871E-01
0.36691897E-01
0.26496813E-01
0.19246696E-01
0.14052142E-01
0.10147711E-01
0.72944728E-02
0.52565569E-02
0.37673493E-02
0.26883571E-02
0.19249682E-02
0.13673989E-02
0.97151159E-03
0.69203542E-03
0.48943638E-03
0.34698343E-03
0.24631119E-03
0.17466002E-03
0.12339762E-03
0.87046712E-04
0.61485167E-04
0.43680997E-04
0.30984458E-04
0.21996213E-04
0.15652029E-04
0.11128081E-04
0.79871215E-05
0.57352167E-05
0.40879804E-05
0.29257374E-05
0.21100532E-05
0.15145098E-05
0.10862825E-05
0.77856015E-06
0.55584076E-06
0.39776614E-06
0.28478925E-06
0.20296459E-06
0.14390473E-06
0.10128674E-06
0.70965960E-07
0.49474107E-07
0.34310339E-07
0.23585546E-07
0.16057095E-07
0.10840791E-07
0.72204340E-08
0.47361728E-08
0.30735559E-08
0.19562856E-08
0.12082101E-08
0.72649092E-09
0.42023185E-09
0.23459307E-09
0.12510666E-09
0.63708719E-10
0.32444721E-10
0.18670898E-10
0.14666546E-10
0.15412218E-10
0.17915579E-10
0.20470849E-10
0.22245931E-10
0.22970148E-10
0.22619821E-10
0.21345415E-10
0.19403788E-10
0.17081003E-10
0.14611220E-10
0.12174269E-10
0.99375109E-11
0.80202216E-11
0.64816459E-11
0.53891115E-11
0.47332424E-11
0.45041080E-11
0.46706142E-11
0.51901413E-11
0.59941201E-11
0.70252623E-11
0.82409956E-11
0.96083081E-11
0.10996445E-10
