atomic number =   93
effective nuclear charge =   93
electron count =   86
net charge =    7
basis set = approximate basis set limit (UGBS)      
exchange correlation functional = PW91PW91            
cutoff radius (picometer) =  400
number of shells =   75
prepared by = Thomas A. Manz      
prepared date = July 2010           
net magnetization =    0
density in atomic units:
0.12390954E+06
0.44178860E+03
0.14214049E+03
0.70044701E+02
0.25363888E+02
0.11341330E+02
0.72410407E+01
0.47408075E+01
0.29188030E+01
0.17640696E+01
0.11061454E+01
0.73963284E+00
0.52949286E+00
0.40257999E+00
0.31580076E+00
0.25037080E+00
0.19803841E+00
0.15583439E+00
0.12222103E+00
0.95336787E-01
0.73948309E-01
0.56936949E-01
0.43480858E-01
0.33118341E-01
0.25161793E-01
0.19058250E-01
0.14409197E-01
0.10898287E-01
0.81722010E-02
0.61214487E-02
0.46239872E-02
0.34872298E-02
0.26098606E-02
0.19490491E-02
0.14672835E-02
0.11049904E-02
0.82869286E-03
0.62404945E-03
0.47248908E-03
0.35653613E-03
0.26830763E-03
0.20315207E-03
0.15403358E-03
0.11667528E-03
0.88557957E-04
0.67219422E-04
0.51067535E-04
0.38763999E-04
0.29335923E-04
0.22217031E-04
0.16826900E-04
0.12758043E-04
0.96436706E-05
0.72854391E-05
0.55213895E-05
0.41693597E-05
0.31382867E-05
0.23647481E-05
0.17824591E-05
0.13417800E-05
0.10068542E-05
0.75712376E-06
0.56851684E-06
0.42582465E-06
0.31835256E-06
0.23765831E-06
0.17752348E-06
0.13207291E-06
0.97893377E-07
0.72581386E-07
0.53842125E-07
0.39638770E-07
0.29049048E-07
0.21258312E-07
0.15560479E-07
