atomic number =   99
effective nuclear charge =   99
electron count =   86
net charge =   13
basis set = approximate basis set limit (UGBS)      
exchange correlation functional = PW91PW91            
cutoff radius (picometer) =  500
number of shells =  100
prepared by = Thomas A. Manz      
prepared date = July 2010           
net magnetization =    0
density in atomic units:
0.10311576E+07
0.74049738E+03
0.19093890E+03
0.76528137E+02
0.24959833E+02
0.13637393E+02
0.89800138E+01
0.55513563E+01
0.33074236E+01
0.19590153E+01
0.12147484E+01
0.83099502E+00
0.60394800E+00
0.45769611E+00
0.36050689E+00
0.28591353E+00
0.22359467E+00
0.17465982E+00
0.13542707E+00
0.10346499E+00
0.79006299E-01
0.60380332E-01
0.45624848E-01
0.34307156E-01
0.25848664E-01
0.19392714E-01
0.14508419E-01
0.10897562E-01
0.81401579E-02
0.60895276E-02
0.45704586E-02
0.34134032E-02
0.25566807E-02
0.19184651E-02
0.14390515E-02
0.10765184E-02
0.80452138E-03
0.60201919E-03
0.45270481E-03
0.33999197E-03
0.25553780E-03
0.19240440E-03
0.14478671E-03
0.10981971E-03
0.83322841E-04
0.62839361E-04
0.47563972E-04
0.36239482E-04
0.27510676E-04
0.20886298E-04
0.15855880E-04
0.12011064E-04
0.91258453E-05
0.69463390E-05
0.52758301E-05
0.39988117E-05
0.30203100E-05
0.22794625E-05
0.17193014E-05
0.12966527E-05
0.97554414E-06
0.73245877E-06
0.54990829E-06
0.41179922E-06
0.30759881E-06
0.23033040E-06
0.17213749E-06
0.12789010E-06
0.94846385E-07
0.70108690E-07
0.51913528E-07
0.38389789E-07
0.28280049E-07
0.20837435E-07
0.15281449E-07
0.11185567E-07
0.81854612E-08
0.59782725E-08
0.43665889E-08
0.31957190E-08
0.23375926E-08
0.17105468E-08
0.12495136E-08
0.91525088E-09
0.67615402E-09
0.50083776E-09
0.37282882E-09
0.27856994E-09
0.20913367E-09
0.15788071E-09
0.12030932E-09
0.93010238E-10
0.73446797E-10
0.60121845E-10
0.51432782E-10
0.46459735E-10
0.44561358E-10
0.45230635E-10
0.47862894E-10
0.52130304E-10
