atomic number =   88
effective nuclear charge =   88
electron count =   78
net charge =   10
basis set = approximate basis set limit (UGBS)      
exchange correlation functional = PW91PW91            
cutoff radius (picometer) =  300
number of shells =   50
prepared by = Thomas A. Manz      
prepared date = July 2010           
net magnetization =    0
density in atomic units:
0.10494029E+06
0.29851324E+03
0.10105420E+03
0.44925907E+02
0.15937100E+02
0.71836324E+01
0.46104083E+01
0.31214714E+01
0.19676816E+01
0.11828707E+01
0.67510080E+00
0.37290004E+00
0.21180829E+00
0.11774972E+00
0.65447792E-01
0.36058106E-01
0.19659467E-01
0.11067577E-01
0.61691250E-02
0.34409156E-02
0.19244105E-02
0.10731058E-02
0.59991493E-03
0.33453308E-03
0.18555876E-03
0.10277711E-03
0.57210342E-04
0.32488115E-04
0.18371045E-04
0.10396760E-04
0.59515150E-05
0.34006137E-05
0.19522070E-05
0.11133209E-05
0.63074293E-06
0.35808785E-06
0.20278887E-06
0.11387912E-06
0.63180231E-07
0.35426552E-07
0.20153401E-07
0.11584365E-07
0.68788930E-08
0.42554973E-08
0.27213884E-08
0.18040276E-08
0.12194054E-08
0.83047930E-09
0.56263488E-09
0.37633632E-09
