atomic number =   78
effective nuclear charge =   78
electron count =   46
net charge =   32
basis set = approximate basis set limit (UGBS)      
exchange correlation functional = PW91PW91            
cutoff radius (picometer) =  400
number of shells =   75
prepared by = Thomas A. Manz      
prepared date = July 2010           
net magnetization =    0
density in atomic units:
0.72066945E+05
0.37414374E+03
0.70840256E+02
0.33373943E+02
0.19914818E+02
0.86214066E+01
0.32462778E+01
0.11205164E+01
0.35858589E+00
0.11604732E+00
0.38374074E-01
0.12829922E-01
0.41896342E-02
0.13855624E-02
0.46272238E-03
0.15782550E-03
0.54510194E-04
0.19312678E-04
0.69278440E-05
0.24861154E-05
0.86060345E-06
0.28812485E-06
0.91056279E-07
0.28709737E-07
0.91066710E-08
0.28168508E-08
0.74313089E-09
0.18603166E-09
0.27524991E-09
0.61819683E-09
0.96593278E-09
0.12014123E-08
0.12763836E-08
0.11961329E-08
0.10150434E-08
0.78624346E-09
0.55544491E-09
0.36269882E-09
0.22353547E-09
0.13654991E-09
0.96846683E-10
0.93115696E-10
0.11087933E-09
0.13801717E-09
0.16472655E-09
0.18492230E-09
0.19545734E-09
0.19535586E-09
0.18574996E-09
0.16864467E-09
0.14671184E-09
0.12263188E-09
0.98303241E-10
0.75728888E-10
0.56334298E-10
0.40336314E-10
0.28073831E-10
0.19618775E-10
0.14516074E-10
0.12172018E-10
0.11992600E-10
0.13345870E-10
0.15663856E-10
0.18459220E-10
0.21306274E-10
0.23876711E-10
0.25938923E-10
0.27428112E-10
0.28221347E-10
0.28360357E-10
0.27897450E-10
0.26859025E-10
0.25365387E-10
0.23516137E-10
0.21446948E-10
