atomic number =   90
effective nuclear charge =   90
electron count =   86
net charge =    4
basis set = approximate basis set limit (UGBS)      
exchange correlation functional = PW91PW91            
cutoff radius (picometer) =  400
number of shells =   75
prepared by = Thomas A. Manz      
prepared date = July 2010           
net magnetization =    0
density in atomic units:
0.11236245E+06
0.43782834E+03
0.13098157E+03
0.70324669E+02
0.27180519E+02
0.11380310E+02
0.69672356E+01
0.47283883E+01
0.30754058E+01
0.19371240E+01
0.12365633E+01
0.82321453E+00
0.58007014E+00
0.43475208E+00
0.33886200E+00
0.26924294E+00
0.21480054E+00
0.17111364E+00
0.13605978E+00
0.10761006E+00
0.84599175E-01
0.65966710E-01
0.50972141E-01
0.39232090E-01
0.30086076E-01
0.22973284E-01
0.17490743E-01
0.13307662E-01
0.10028827E-01
0.75428570E-02
0.57156174E-02
0.43208669E-02
0.32395376E-02
0.24224450E-02
0.18251413E-02
0.13750185E-02
0.10311856E-02
0.77619031E-03
0.58719137E-03
0.44261507E-03
0.33258661E-03
0.25137712E-03
0.19017319E-03
0.14369760E-03
0.10876394E-03
0.82303239E-04
0.62314088E-04
0.47132184E-04
0.35529214E-04
0.26794594E-04
0.20204749E-04
0.15248959E-04
0.11470478E-04
0.86234541E-05
0.65012819E-05
0.48836396E-05
0.36561146E-05
0.27384499E-05
0.20544414E-05
0.15368385E-05
0.11480770E-05
0.85801048E-06
0.64086993E-06
0.47725177E-06
0.35483853E-06
0.26352049E-06
0.19583352E-06
0.14500064E-06
0.10696270E-06
0.78949327E-07
0.58314054E-07
0.42750774E-07
0.31199402E-07
0.22745393E-07
0.16587583E-07
