atomic number =   63
effective nuclear charge =   63
electron count =   48
net charge =   15
basis set = approximate basis set limit (UGBS)      
exchange correlation functional = PW91PW91            
cutoff radius (picometer) =  500
number of shells =  100
prepared by = Thomas A. Manz      
prepared date = July 2010           
net magnetization =    0
density in atomic units:
0.25027961E+06
0.40153891E+03
0.11851656E+03
0.28948565E+02
0.14796505E+02
0.11357805E+02
0.75773239E+01
0.43317857E+01
0.23711655E+01
0.12788218E+01
0.70276201E+00
0.41669059E+00
0.25769353E+00
0.16648628E+00
0.11504187E+00
0.81804745E-01
0.58000110E-01
0.41625600E-01
0.29883590E-01
0.21189630E-01
0.15087175E-01
0.10790459E-01
0.76251272E-02
0.53629135E-02
0.37835729E-02
0.26557983E-02
0.18569730E-02
0.13041279E-02
0.90889580E-03
0.63393771E-03
0.44360053E-03
0.30819970E-03
0.21471738E-03
0.14983390E-03
0.10444147E-03
0.72514507E-04
0.50254523E-04
0.34865294E-04
0.24331019E-04
0.16949685E-04
0.11815793E-04
0.82558026E-05
0.57632683E-05
0.40641812E-05
0.28675552E-05
0.20082502E-05
0.14128216E-05
0.10021262E-05
0.70770221E-06
0.49955207E-06
0.35249775E-06
0.24782898E-06
0.17474595E-06
0.12333822E-06
0.86662880E-07
0.60588519E-07
0.42059281E-07
0.29066527E-07
0.19994262E-07
0.13684621E-07
0.92886054E-08
0.62449779E-08
0.41652108E-08
0.27432965E-08
0.17797684E-08
0.11445729E-08
0.72373391E-09
0.44748913E-09
0.26993008E-09
0.15946938E-09
0.93260885E-10
0.54458642E-10
0.32728077E-10
0.21514649E-10
0.16249179E-10
0.14237741E-10
0.13748081E-10
0.13785650E-10
0.13815658E-10
0.13578796E-10
0.13005338E-10
0.12117899E-10
0.10976498E-10
0.96789981E-11
0.83341467E-11
0.70168611E-11
0.57695702E-11
0.46574073E-11
0.37036645E-11
0.29265884E-11
0.23472298E-11
0.19504496E-11
0.17289321E-11
0.16665779E-11
0.17479638E-11
0.19437034E-11
0.22363890E-11
0.25998741E-11
0.30217981E-11
0.34606192E-11
