atomic number =   88
effective nuclear charge =   88
electron count =   30
net charge =   58
basis set = approximate basis set limit (UGBS)      
exchange correlation functional = PW91PW91            
cutoff radius (picometer) =  300
number of shells =   50
prepared by = Thomas A. Manz      
prepared date = July 2010           
net magnetization =    0
density in atomic units:
0.10457986E+06
0.22832666E+03
0.19938040E+02
0.36300626E+01
0.79736781E+00
0.12514146E+00
0.16588187E-01
0.23333034E-02
0.30761340E-03
0.44803346E-04
0.67121555E-05
0.72830682E-06
0.46902208E-07
0.54565401E-07
0.65279309E-07
0.34125033E-07
0.79407210E-08
0.26385460E-08
0.79876505E-08
0.12966104E-07
0.13047842E-07
0.94192361E-08
0.50154880E-08
0.18237348E-08
0.43210263E-09
0.45859336E-09
0.11352228E-08
0.18066085E-08
0.21606932E-08
0.21124134E-08
0.17626876E-08
0.12703104E-08
0.78868506E-09
0.40436113E-09
0.16040255E-09
0.52975523E-10
0.46629142E-10
0.10209385E-09
0.18325698E-09
0.25922506E-09
0.31272196E-09
0.33752870E-09
0.33319308E-09
0.30532568E-09
0.26143415E-09
0.21014741E-09
0.15770434E-09
0.10979838E-09
0.69932081E-10
0.40002814E-10
