atomic number =  106
effective nuclear charge =  106
electron count =   10
net charge =   96
basis set = approximate basis set limit (UGBS)      
exchange correlation functional = PW91PW91            
cutoff radius (picometer) =  500
number of shells =  100
prepared by = Thomas A. Manz      
prepared date = July 2010           
net magnetization =    0
density in atomic units:
0.11899666E+07
0.19845348E+02
0.23332357E-02
0.74079398E-04
0.19467830E-04
0.15408772E-04
0.45297807E-05
0.16614143E-05
0.23523251E-05
0.41886841E-06
0.16250866E-06
0.44995465E-06
0.32145988E-06
0.77810206E-07
0.61479732E-08
0.41019941E-07
0.73647549E-07
0.65280233E-07
0.35709721E-07
0.10528727E-07
0.93872665E-09
0.26002611E-08
0.79634290E-08
0.11629307E-07
0.11811474E-07
0.93375272E-08
0.58586127E-08
0.28371752E-08
0.87946495E-09
0.11018082E-09
0.20396046E-09
0.73366108E-09
0.13253992E-08
0.17493298E-08
0.19161139E-08
0.18303972E-08
0.15587998E-08
0.11928095E-08
0.82029566E-09
0.49228288E-09
0.24521063E-09
0.89860765E-10
0.17519274E-10
0.11029914E-10
0.47436770E-10
0.10771138E-09
0.17220714E-09
0.22751283E-09
0.26811570E-09
0.28969691E-09
0.29217170E-09
0.27811570E-09
0.25180652E-09
0.21761723E-09
0.17942101E-09
0.14068006E-09
0.10417669E-09
0.72312885E-10
0.46281763E-10
0.26535668E-10
0.12789369E-10
0.45578298E-11
0.10749002E-11
0.13452383E-11
0.44038952E-11
0.92164314E-11
0.15005166E-10
0.21174658E-10
0.27024069E-10
0.32173007E-10
0.36282460E-10
0.39276190E-10
0.41110261E-10
0.41700692E-10
0.41391827E-10
0.40083672E-10
0.38001140E-10
0.35320913E-10
0.32212979E-10
0.28879553E-10
0.25394024E-10
0.21889971E-10
0.18495845E-10
0.15295976E-10
0.12384399E-10
0.97896205E-11
0.75012123E-11
0.55496779E-11
0.39259360E-11
0.26133037E-11
0.16143679E-11
0.88744008E-12
0.40477913E-12
0.14289054E-12
0.63514732E-13
0.13624426E-12
0.32871636E-12
0.61548623E-12
0.97005889E-12
0.13675258E-11
