atomic number =   86
effective nuclear charge =   86
electron count =   80
net charge =    6
basis set = approximate basis set limit (UGBS)      
exchange correlation functional = PW91PW91            
cutoff radius (picometer) =  400
number of shells =   75
prepared by = Thomas A. Manz      
prepared date = July 2010           
net magnetization =    0
density in atomic units:
0.97858195E+05
0.42909375E+03
0.11599120E+03
0.67673347E+02
0.29588428E+02
0.11699438E+02
0.62905188E+01
0.42582312E+01
0.29919727E+01
0.20514436E+01
0.13788326E+01
0.91375822E+00
0.60252380E+00
0.40272361E+00
0.27252379E+00
0.18671343E+00
0.12935109E+00
0.91138341E-01
0.65550484E-01
0.47916032E-01
0.35425711E-01
0.26362577E-01
0.19655973E-01
0.14740958E-01
0.11096935E-01
0.83687855E-02
0.63243206E-02
0.47959751E-02
0.36152240E-02
0.27277106E-02
0.20778009E-02
0.15817964E-02
0.11959547E-02
0.90245268E-03
0.68613660E-03
0.52155223E-03
0.39452300E-03
0.29931538E-03
0.22800341E-03
0.17291657E-03
0.13062383E-03
0.99157667E-04
0.75303396E-04
0.57084257E-04
0.43344022E-04
0.32904016E-04
0.25003377E-04
0.18994991E-04
0.14396142E-04
0.10931320E-04
0.83114101E-05
0.63357447E-05
0.48235142E-05
0.36788465E-05
0.28196571E-05
0.21580715E-05
0.16514091E-05
0.12673146E-05
0.97588565E-06
0.75197426E-06
0.57967947E-06
0.44851080E-06
0.34749024E-06
0.26920355E-06
0.20865272E-06
0.16186085E-06
0.12590630E-06
0.97808083E-07
0.75908424E-07
0.59035319E-07
0.46029935E-07
0.35718021E-07
0.27647131E-07
0.21403615E-07
0.16591777E-07
