atomic number =   88
effective nuclear charge =   88
electron count =   86
net charge =    2
basis set = approximate basis set limit (UGBS)      
exchange correlation functional = PW91PW91            
cutoff radius (picometer) =  300
number of shells =   50
prepared by = Thomas A. Manz      
prepared date = July 2010           
net magnetization =    0
density in atomic units:
0.10497789E+06
0.29897089E+03
0.10158319E+03
0.44975536E+02
0.16143181E+02
0.74794703E+01
0.47685828E+01
0.31611419E+01
0.19791666E+01
0.12294064E+01
0.77548563E+00
0.51609564E+00
0.37568179E+00
0.28499743E+00
0.22350775E+00
0.17715834E+00
0.14046657E+00
0.11224151E+00
0.88711724E-01
0.69613181E-01
0.54316655E-01
0.42107198E-01
0.32549422E-01
0.25038436E-01
0.19149860E-01
0.14574581E-01
0.11073598E-01
0.84525030E-02
0.64068385E-02
0.48398580E-02
0.36661935E-02
0.27706358E-02
0.21000581E-02
0.15887922E-02
0.12017981E-02
0.91295346E-03
0.69517666E-03
0.52845350E-03
0.40001646E-03
0.30378849E-03
0.23131026E-03
0.17521613E-03
0.13305564E-03
0.10116326E-03
0.76744691E-04
0.58317459E-04
0.44222717E-04
0.33515269E-04
0.25385843E-04
0.19279050E-04
