atomic number =   78
effective nuclear charge =   78
electron count =   68
net charge =   10
basis set = approximate basis set limit (UGBS)      
exchange correlation functional = PW91PW91            
cutoff radius (picometer) =  500
number of shells =  100
prepared by = Thomas A. Manz      
prepared date = July 2010           
net magnetization =    0
density in atomic units:
0.49981584E+06
0.55434521E+03
0.11848586E+03
0.55882652E+02
0.33648849E+02
0.17800814E+02
0.87406187E+01
0.44501128E+01
0.26381414E+01
0.17096083E+01
0.11482464E+01
0.79059565E+00
0.53208524E+00
0.34914419E+00
0.23183881E+00
0.15307179E+00
0.98322779E-01
0.63417949E-01
0.40825225E-01
0.25888374E-01
0.16565675E-01
0.10712968E-01
0.68481574E-02
0.43673944E-02
0.28054663E-02
0.17961812E-02
0.11476236E-02
0.73967304E-03
0.47382552E-03
0.30485180E-03
0.19766497E-03
0.12746094E-03
0.82700630E-04
0.53869200E-04
0.35084144E-04
0.22751798E-04
0.14713054E-04
0.95150599E-05
0.61846208E-05
0.40039517E-05
0.25882293E-05
0.16756823E-05
0.10826458E-05
0.70830248E-06
0.46458877E-06
0.30299194E-06
0.19963460E-06
0.13373185E-06
0.89831772E-07
0.60871102E-07
0.41653983E-07
0.28701480E-07
0.20027530E-07
0.14115047E-07
0.99789839E-08
0.70603101E-08
0.49869833E-08
0.35141168E-08
0.24665610E-08
0.17193312E-08
0.11823733E-08
0.80111157E-09
0.53408022E-09
0.34769637E-09
0.22091048E-09
0.13838561E-09
0.86085576E-10
0.54757678E-10
0.38443207E-10
0.31934771E-10
0.31525352E-10
0.34500812E-10
0.38999689E-10
0.43695585E-10
0.48005443E-10
0.51222648E-10
0.53205752E-10
0.53882870E-10
0.53296166E-10
0.51669623E-10
0.49078141E-10
0.45797560E-10
0.41951449E-10
0.37805169E-10
0.33547529E-10
0.29331829E-10
0.25217148E-10
0.21315725E-10
0.17726445E-10
0.14439287E-10
0.11589095E-10
0.91160595E-11
0.70246656E-11
0.53413615E-11
0.40254588E-11
0.30401324E-11
0.23728096E-11
0.19623079E-11
0.17864882E-11
0.18047880E-11
