atomic number =   94
effective nuclear charge =   94
electron count =   80
net charge =   14
basis set = approximate basis set limit (UGBS)      
exchange correlation functional = PW91PW91            
cutoff radius (picometer) =  500
number of shells =  100
prepared by = Thomas A. Manz      
prepared date = July 2010           
net magnetization =    0
density in atomic units:
0.88704000E+06
0.70464075E+03
0.16655309E+03
0.78891640E+02
0.27430367E+02
0.13004664E+02
0.82804899E+01
0.56015224E+01
0.36871529E+01
0.22941523E+01
0.13795084E+01
0.84449244E+00
0.51524150E+00
0.31798959E+00
0.20755970E+00
0.13937007E+00
0.93579955E-01
0.64223520E-01
0.44508014E-01
0.30691279E-01
0.21414282E-01
0.15097730E-01
0.10555565E-01
0.73656030E-02
0.51662843E-02
0.36092966E-02
0.25134564E-02
0.17588791E-02
0.12216560E-02
0.84933400E-03
0.59249712E-03
0.41037792E-03
0.28506023E-03
0.19834601E-03
0.13786778E-03
0.95470510E-04
0.66013774E-04
0.45717250E-04
0.31863707E-04
0.22181541E-04
0.15463529E-04
0.10811982E-04
0.75596113E-05
0.53430908E-05
0.37813290E-05
0.26582429E-05
0.18783373E-05
0.13388868E-05
0.95041531E-06
0.67460905E-06
0.47857912E-06
0.33824043E-06
0.23959876E-06
0.16972129E-06
0.11958350E-06
0.83660652E-07
0.58014400E-07
0.39908677E-07
0.27229017E-07
0.18393180E-07
0.12244523E-07
0.80073050E-08
0.51438280E-08
0.32176344E-08
0.19492437E-08
0.11486239E-08
0.65051786E-09
0.35158143E-09
0.18876900E-09
0.11136342E-09
0.85938839E-10
0.89031810E-10
0.10591082E-09
0.12770768E-09
0.14842673E-09
0.16520232E-09
0.17674139E-09
0.18257561E-09
0.18314965E-09
0.17908323E-09
0.17111511E-09
0.16047751E-09
0.14773016E-09
0.13371122E-09
0.11958899E-09
0.10553753E-09
0.91962611E-10
0.79422045E-10
0.68064492E-10
0.57934040E-10
0.49351169E-10
0.42178080E-10
0.36276988E-10
0.31898036E-10
0.28712258E-10
0.26605596E-10
0.25508876E-10
0.25266360E-10
0.25720738E-10
0.26620553E-10
