atomic number =   80
effective nuclear charge =   80
electron count =   28
net charge =   52
basis set = approximate basis set limit (UGBS)      
exchange correlation functional = PW91PW91            
cutoff radius (picometer) =  300
number of shells =   50
prepared by = Thomas A. Manz      
prepared date = July 2010           
net magnetization =    0
density in atomic units:
0.77389570E+05
0.23133636E+03
0.24071722E+02
0.13297341E+01
0.64132407E-01
0.23667566E-02
0.73383453E-04
0.35208759E-05
0.19480888E-06
0.20285128E-06
0.13163643E-06
0.17781289E-07
0.92651540E-08
0.30418068E-07
0.30052295E-07
0.14631061E-07
0.29297240E-08
0.57295885E-09
0.28841616E-08
0.50912421E-08
0.52270233E-08
0.37769059E-08
0.19779465E-08
0.67159550E-09
0.10790548E-09
0.12904235E-09
0.41639608E-09
0.69911976E-09
0.84973384E-09
0.83400459E-09
0.69453826E-09
0.49667953E-09
0.30342689E-09
0.15006801E-09
0.53634951E-10
0.12306591E-10
0.11479625E-10
0.35169319E-10
0.68739008E-10
0.99801736E-10
0.12159801E-09
0.13168497E-09
0.12994031E-09
0.11880080E-09
0.10130131E-09
0.80918418E-10
0.60187293E-10
0.41343564E-10
0.25745921E-10
0.14135758E-10
