atomic number =   90
effective nuclear charge =   90
electron count =    2
net charge =   88
basis set = approximate basis set limit (UGBS)      
exchange correlation functional = PW91PW91            
cutoff radius (picometer) =  300
number of shells =   50
prepared by = Thomas A. Manz      
prepared date = July 2010           
net magnetization =    0
density in atomic units:
0.92458289E+05
0.66672266E-03
0.58432386E-04
0.18812583E-04
0.41279377E-05
0.11393540E-05
0.78484169E-06
0.42190285E-06
0.31059354E-07
0.14068753E-06
0.94892300E-07
0.11691338E-07
0.65623040E-08
0.22498048E-07
0.21914939E-07
0.10337398E-07
0.18164951E-08
0.28301222E-09
0.21113724E-08
0.37479100E-08
0.38026786E-08
0.26957172E-08
0.13642359E-08
0.42223305E-09
0.37208951E-10
0.78255118E-10
0.30383845E-09
0.51510674E-09
0.62222494E-09
0.60456634E-09
0.49687382E-09
0.34903980E-09
0.20735581E-09
0.97081079E-10
0.29727353E-10
0.28941686E-11
0.52198823E-11
0.24671220E-10
0.50463831E-10
0.73592556E-10
0.89294905E-10
0.96091773E-10
0.94128705E-10
0.85347077E-10
0.72080779E-10
0.56912749E-10
0.41686578E-10
0.28021727E-10
0.16868821E-10
0.87094715E-11
