atomic number =   78
effective nuclear charge =   78
electron count =   12
net charge =   66
basis set = approximate basis set limit (UGBS)      
exchange correlation functional = PW91PW91            
cutoff radius (picometer) =  500
number of shells =  100
prepared by = Thomas A. Manz      
prepared date = July 2010           
net magnetization =    0
density in atomic units:
0.49566888E+06
0.13034862E+03
0.12429613E+02
0.10682757E+01
0.56492388E-01
0.39816517E-02
0.24898085E-03
0.14456635E-04
0.22072381E-05
0.27944412E-06
0.62944920E-07
0.18209600E-06
0.13049009E-06
0.30513753E-07
0.22768289E-08
0.17656379E-07
0.31206387E-07
0.27304417E-07
0.14689677E-07
0.41635384E-08
0.29958092E-09
0.11408802E-08
0.34640357E-08
0.50002487E-08
0.50332063E-08
0.39439856E-08
0.24471525E-08
0.11634157E-08
0.34377068E-09
0.33207034E-10
0.87535056E-10
0.32248787E-09
0.57832267E-09
0.75828827E-09
0.82597668E-09
0.78517670E-09
0.66531408E-09
0.50616944E-09
0.34560510E-09
0.20519547E-09
0.10023331E-09
0.35006296E-10
0.54650481E-11
0.40009918E-11
0.20668418E-10
0.47263176E-10
0.75331026E-10
0.99180261E-10
0.11647484E-09
0.12545220E-09
0.12622889E-09
0.11982067E-09
0.10818658E-09
0.93240110E-10
0.76621216E-10
0.59868353E-10
0.44121554E-10
0.30429582E-10
0.19293072E-10
0.10889290E-10
0.50824358E-11
0.16546196E-11
0.26569350E-12
0.48246807E-12
0.18850403E-11
0.40253764E-11
0.65717752E-11
0.92585878E-11
0.11800498E-10
0.14027384E-10
0.15794142E-10
0.17061678E-10
0.17826986E-10
0.18086180E-10
0.17898639E-10
0.17310674E-10
0.16391855E-10
0.15212928E-10
0.13859769E-10
0.12404681E-10
0.10887487E-10
0.93674912E-11
0.79009395E-11
0.65241181E-11
0.52692473E-11
0.41514743E-11
0.31703501E-11
0.23325764E-11
0.16390175E-11
0.10796118E-11
0.65582332E-12
0.34937989E-12
0.14816697E-12
0.41715631E-13
0.13589870E-13
0.50519674E-13
0.13845877E-12
0.26638248E-12
0.42334303E-12
0.59837340E-12
