atomic number =   96
effective nuclear charge =   96
electron count =   80
net charge =   16
basis set = approximate basis set limit (UGBS)      
exchange correlation functional = PW91PW91            
cutoff radius (picometer) =  500
number of shells =  100
prepared by = Thomas A. Manz      
prepared date = July 2010           
net magnetization =    0
density in atomic units:
0.94351044E+06
0.71916760E+03
0.17598358E+03
0.78360626E+02
0.26179998E+02
0.13013690E+02
0.85057116E+01
0.56169939E+01
0.35590873E+01
0.21372886E+01
0.12484840E+01
0.74902856E+00
0.45086986E+00
0.27600724E+00
0.17939065E+00
0.12009369E+00
0.80340713E-01
0.54860182E-01
0.37759662E-01
0.25809024E-01
0.17825961E-01
0.12430380E-01
0.85860454E-02
0.59156297E-02
0.40961574E-02
0.28243298E-02
0.19409424E-02
0.13407008E-02
0.91895956E-03
0.63052878E-03
0.43421928E-03
0.29683061E-03
0.20352587E-03
0.13980249E-03
0.95933516E-04
0.65581589E-04
0.44769295E-04
0.30617790E-04
0.21083959E-04
0.14509206E-04
0.10001080E-04
0.69221346E-05
0.47933063E-05
0.33596873E-05
0.23597674E-05
0.16478718E-05
0.11578730E-05
0.82173739E-06
0.58111362E-06
0.41121172E-06
0.29120389E-06
0.20539396E-06
0.14514667E-06
0.10258103E-06
0.72082202E-07
0.50229950E-07
0.34623717E-07
0.23625134E-07
0.15932249E-07
0.10593483E-07
0.68996058E-08
0.43842094E-08
0.27114382E-08
0.16156516E-08
0.92421026E-09
0.51643939E-09
0.28934585E-09
0.17959566E-09
0.14551146E-09
0.15517790E-09
0.18655057E-09
0.22609010E-09
0.26453906E-09
0.29732503E-09
0.32219774E-09
0.33714684E-09
0.34213057E-09
0.33932190E-09
0.32938335E-09
0.31273581E-09
0.29223279E-09
0.26845573E-09
0.24240376E-09
0.21609683E-09
0.19017364E-09
0.16534886E-09
0.14186864E-09
0.12051914E-09
0.10154710E-09
0.84684613E-10
0.70606340E-10
0.58651341E-10
0.49174234E-10
0.42103831E-10
0.36951497E-10
0.33511728E-10
0.31668203E-10
0.31228652E-10
0.31902515E-10
0.33248057E-10
