atomic number =   79
effective nuclear charge =   79
electron count =   48
net charge =   31
basis set = approximate basis set limit (UGBS)      
exchange correlation functional = PW91PW91            
cutoff radius (picometer) =  400
number of shells =   75
prepared by = Thomas A. Manz      
prepared date = July 2010           
net magnetization =    0
density in atomic units:
0.75119312E+05
0.37862759E+03
0.70745636E+02
0.34978539E+02
0.19997324E+02
0.83917418E+01
0.33044531E+01
0.13751781E+01
0.63989365E+00
0.34099910E+00
0.19542819E+00
0.11387022E+00
0.65601364E-01
0.37659116E-01
0.21368897E-01
0.11961763E-01
0.65842741E-02
0.36051846E-02
0.19816246E-02
0.10940258E-02
0.60264376E-03
0.33090773E-03
0.17948162E-03
0.97585034E-04
0.53045242E-04
0.28809203E-04
0.15676525E-04
0.85907086E-05
0.46601140E-05
0.25346981E-05
0.14132686E-05
0.79008311E-06
0.43669817E-06
0.24055623E-06
0.13443999E-06
0.75079313E-07
0.41268251E-07
0.22681297E-07
0.12478585E-07
0.67434471E-08
0.35927823E-08
0.19454318E-08
0.10850085E-08
0.64477418E-09
0.42884737E-09
0.32385530E-09
0.27058933E-09
0.23838956E-09
0.21241314E-09
0.18703417E-09
0.16074884E-09
0.13408837E-09
0.10801540E-09
0.84061577E-10
0.63494869E-10
0.46436657E-10
0.33228146E-10
0.23936748E-10
0.18126877E-10
0.15197935E-10
0.14555893E-10
0.15563864E-10
0.17634408E-10
0.20267189E-10
0.23012788E-10
0.25541727E-10
0.27597261E-10
0.29077940E-10
0.29906383E-10
0.30061263E-10
0.29566304E-10
0.28527033E-10
0.26990110E-10
0.25097313E-10
0.22965291E-10
