atomic number =   89
effective nuclear charge =   89
electron count =   80
net charge =    9
basis set = approximate basis set limit (UGBS)      
exchange correlation functional = PW91PW91            
cutoff radius (picometer) =  500
number of shells =  100
prepared by = Thomas A. Manz      
prepared date = July 2010           
net magnetization =    0
density in atomic units:
0.75328312E+06
0.66468677E+03
0.14485034E+03
0.76995308E+02
0.30966532E+02
0.13707645E+02
0.77744803E+01
0.52959638E+01
0.37725675E+01
0.25755808E+01
0.16900789E+01
0.11097190E+01
0.71562761E+00
0.45980436E+00
0.30758098E+00
0.20985936E+00
0.14281122E+00
0.99351466E-01
0.69978900E-01
0.49254414E-01
0.35186559E-01
0.25455251E-01
0.18312963E-01
0.13170701E-01
0.95241377E-02
0.68643703E-02
0.49333428E-02
0.35608755E-02
0.25522059E-02
0.18306847E-02
0.13170263E-02
0.94128115E-03
0.67450211E-03
0.48404161E-03
0.34702854E-03
0.24789802E-03
0.17680762E-03
0.12624341E-03
0.90618851E-04
0.64929860E-04
0.46543813E-04
0.33417549E-04
0.23964922E-04
0.17334469E-04
0.12536725E-04
0.89965451E-05
0.64779824E-05
0.46974587E-05
0.33884676E-05
0.24422627E-05
0.17585019E-05
0.12612517E-05
0.90679492E-06
0.65239817E-06
0.46741457E-06
0.33335573E-06
0.23625644E-06
0.16682721E-06
0.11738686E-06
0.82319993E-07
0.57342842E-07
0.39668144E-07
0.27300370E-07
0.18620069E-07
0.12574140E-07
0.84615479E-08
0.56424865E-08
0.37003736E-08
0.24046380E-08
0.15454642E-08
0.99301578E-09
0.63931854E-09
0.41677947E-09
0.28076214E-09
0.19920697E-09
0.15207019E-09
0.12493122E-09
0.10931782E-09
0.99538593E-10
0.92313192E-10
0.85769988E-10
0.79108692E-10
0.71996485E-10
0.64434784E-10
0.56775036E-10
0.49215389E-10
0.41929415E-10
0.35227377E-10
0.29246629E-10
0.24102475E-10
0.19947016E-10
0.16737878E-10
0.14464067E-10
0.13103852E-10
0.12579502E-10
0.12724190E-10
0.13502163E-10
0.14803504E-10
0.16437216E-10
0.18393561E-10
