atomic number =   94
effective nuclear charge =   94
electron count =   86
net charge =    8
basis set = approximate basis set limit (UGBS)      
exchange correlation functional = PW91PW91            
cutoff radius (picometer) =  300
number of shells =   50
prepared by = Thomas A. Manz      
prepared date = July 2010           
net magnetization =    0
density in atomic units:
0.12788159E+06
0.31682239E+03
0.11582877E+03
0.41067768E+02
0.14858643E+02
0.81107998E+01
0.49711580E+01
0.29354544E+01
0.16689848E+01
0.99958307E+00
0.64642203E+00
0.45389882E+00
0.34336963E+00
0.26306009E+00
0.20249733E+00
0.15414868E+00
0.11575485E+00
0.87211736E-01
0.64702392E-01
0.47612492E-01
0.34878120E-01
0.25420748E-01
0.18520316E-01
0.13454664E-01
0.97320881E-02
0.70163636E-02
0.50573596E-02
0.36713078E-02
0.26469983E-02
0.19030413E-02
0.13736245E-02
0.98980078E-03
0.71612577E-03
0.51750266E-03
0.37427893E-03
0.27235708E-03
0.19891243E-03
0.14515880E-03
0.10551435E-03
0.77038028E-04
0.56447268E-04
0.41131127E-04
0.30051675E-04
0.21988011E-04
0.16037236E-04
0.11714761E-04
0.85297816E-05
0.62003828E-05
0.44983017E-05
0.32691923E-05
