atomic number =   55
effective nuclear charge =   55
electron count =   10
net charge =   45
basis set = approximate basis set limit (UGBS)      
exchange correlation functional = PW91PW91            
cutoff radius (picometer) =  300
number of shells =   50
prepared by = Thomas A. Manz      
prepared date = July 2010           
net magnetization =    0
density in atomic units:
0.22698291E+05
0.47391144E+02
0.83531338E+00
0.10344304E-01
0.14096755E-03
0.19725396E-05
0.23141949E-06
0.11701647E-06
0.10027316E-07
0.43763958E-07
0.28189131E-07
0.32423209E-08
0.22347602E-08
0.71340303E-08
0.67789880E-08
0.31326823E-08
0.52731447E-09
0.99478280E-10
0.68951700E-09
0.11948382E-08
0.11982049E-08
0.84195306E-09
0.42185713E-09
0.12824097E-09
0.10797713E-10
0.26547620E-10
0.98912746E-10
0.16551063E-09
0.19856383E-09
0.19201653E-09
0.15723252E-09
0.11004127E-09
0.65092466E-10
0.30281468E-10
0.91483938E-11
0.86140128E-12
0.17792019E-11
0.80703118E-11
0.16317669E-10
0.23661644E-10
0.28619183E-10
0.30722685E-10
0.30047090E-10
0.27204444E-10
0.22943656E-10
0.18092573E-10
0.13231850E-10
0.88797658E-11
0.53316908E-11
0.27432657E-11
