atomic number =  105
effective nuclear charge =  105
electron count =  100
net charge =    5
basis set = approximate basis set limit (UGBS)      
exchange correlation functional = PW91PW91            
cutoff radius (picometer) =  300
number of shells =   50
prepared by = Thomas A. Manz      
prepared date = July 2010           
net magnetization =    0
density in atomic units:
0.17515592E+06
0.36960593E+03
0.12460183E+03
0.34661690E+02
0.18793123E+02
0.11900766E+02
0.68242626E+01
0.39842978E+01
0.24134238E+01
0.15521894E+01
0.10156920E+01
0.66722935E+00
0.45100823E+00
0.30067250E+00
0.20012373E+00
0.13162431E+00
0.85529104E-01
0.56485251E-01
0.36850203E-01
0.23973538E-01
0.15614672E-01
0.10161152E-01
0.66414811E-02
0.43460573E-02
0.28385501E-02
0.18541090E-02
0.12142089E-02
0.80486736E-03
0.52991620E-03
0.34786467E-03
0.22962657E-03
0.15115208E-03
0.99907447E-04
0.65855696E-04
0.43383418E-04
0.28784953E-04
0.19170124E-04
0.12754757E-04
0.84478452E-05
0.56303775E-05
0.37771815E-05
0.25194336E-05
0.16892038E-05
0.11368136E-05
0.76283715E-06
0.51357142E-06
0.34465606E-06
0.23093261E-06
0.15443253E-06
0.10344726E-06
