atomic number =   93
effective nuclear charge =   93
electron count =   86
net charge =    7
basis set = approximate basis set limit (UGBS)      
exchange correlation functional = PW91PW91            
cutoff radius (picometer) =  500
number of shells =  100
prepared by = Thomas A. Manz      
prepared date = July 2010           
net magnetization =    0
density in atomic units:
0.85942462E+06
0.69780640E+03
0.16255228E+03
0.79041977E+02
0.28210388E+02
0.13343060E+02
0.84221048E+01
0.56826711E+01
0.37527735E+01
0.23719764E+01
0.14888457E+01
0.98825598E+00
0.68654001E+00
0.50311840E+00
0.39264083E+00
0.31461295E+00
0.25212765E+00
0.20328742E+00
0.16327694E+00
0.12951370E+00
0.10257509E+00
0.81163809E-01
0.63476123E-01
0.49340080E-01
0.38355879E-01
0.29654292E-01
0.22834631E-01
0.17620794E-01
0.13510915E-01
0.10360901E-01
0.79606790E-02
0.60834228E-02
0.46579330E-02
0.35704179E-02
0.27346625E-02
0.20885791E-02
0.15932138E-02
0.12165055E-02
0.93295763E-03
0.71444380E-03
0.54744614E-03
0.42003507E-03
0.32202416E-03
0.24864270E-03
0.19197074E-03
0.14733194E-03
0.11342781E-03
0.87839020E-04
0.67777131E-04
0.52291725E-04
0.40335755E-04
0.31049483E-04
0.23969338E-04
0.18538152E-04
0.14312108E-04
0.11029811E-04
0.84770718E-05
0.65117865E-05
0.50031358E-05
0.38459762E-05
0.29511352E-05
0.22628337E-05
0.17349336E-05
0.13286451E-05
0.10149579E-05
0.77807738E-06
0.59557078E-06
0.45385485E-06
0.34553273E-06
0.26241540E-06
0.19964608E-06
0.15170220E-06
0.11489465E-06
0.87006981E-07
0.65588068E-07
0.49309410E-07
0.37008952E-07
0.27682969E-07
0.20676415E-07
0.15449437E-07
0.11480742E-07
0.84922540E-08
0.62608616E-08
0.46120907E-08
0.34048673E-08
0.25125659E-08
0.18543799E-08
0.13710575E-08
0.10179068E-08
0.75805257E-09
0.57140342E-09
0.43541271E-09
0.33652073E-09
0.26607661E-09
0.21534505E-09
0.17901421E-09
0.15355735E-09
0.13571570E-09
0.12367569E-09
0.11617821E-09
