atomic number =   10
effective nuclear charge =   10
electron count =    2
net charge =    8
basis set = approximate basis set limit (UGBS)      
exchange correlation functional = PW91PW91            
cutoff radius (picometer) =  300
number of shells =   50
prepared by = Thomas A. Manz      
prepared date = July 2010           
net magnetization =    0
density in atomic units:
0.15791611E+03
0.17028297E+02
0.23126638E+01
0.31483719E+00
0.44873845E-01
0.55676610E-02
0.70189271E-03
0.10448746E-03
0.14880344E-04
0.22267234E-05
0.33016039E-06
0.42927450E-07
0.56208518E-08
0.55400445E-09
0.35940004E-10
0.20668846E-11
0.15578738E-11
0.39364150E-11
0.64435709E-11
0.70507146E-11
0.56451493E-11
0.33770406E-11
0.14235918E-11
0.31295883E-12
0.23707478E-13
0.24646095E-12
0.61980683E-12
0.89616660E-12
0.98958721E-12
0.90325810E-12
0.70520423E-12
0.47036528E-12
0.26233136E-12
0.11113612E-12
0.27039177E-13
0.16795920E-14
0.15945082E-13
0.51409374E-13
0.92366564E-13
0.12628048E-12
0.14723739E-12
0.15396992E-12
0.14748444E-12
0.13123931E-12
0.10889043E-12
0.84472956E-13
0.60662704E-13
0.39810748E-13
0.23179966E-13
0.11350947E-13
