atomic number =   96
effective nuclear charge =   96
electron count =   10
net charge =   86
basis set = approximate basis set limit (UGBS)      
exchange correlation functional = PW91PW91            
cutoff radius (picometer) =  300
number of shells =   50
prepared by = Thomas A. Manz      
prepared date = July 2010           
net magnetization =    0
density in atomic units:
0.12910813E+06
0.16894155E+01
0.63423644E-03
0.39630202E-04
0.91076190E-05
0.24509852E-05
0.17434548E-05
0.92365627E-06
0.72011169E-07
0.31297853E-06
0.21012760E-06
0.26331374E-07
0.15032100E-07
0.50170769E-07
0.48790337E-07
0.23085896E-07
0.41454733E-08
0.70112033E-09
0.47336473E-08
0.83614635E-08
0.84866860E-08
0.60286260E-08
0.30651777E-08
0.96253838E-09
0.97401802E-10
0.18190845E-09
0.68030187E-09
0.11496115E-08
0.13888284E-08
0.13509844E-08
0.11121886E-08
0.78311302E-09
0.46716664E-09
0.22058619E-09
0.69358290E-10
0.84766274E-11
0.12783694E-10
0.55524869E-10
0.11272356E-09
0.16417273E-09
0.19919739E-09
0.21456718E-09
0.21042698E-09
0.19101214E-09
0.16151684E-09
0.12777401E-09
0.93783606E-10
0.63269882E-10
0.38272482E-10
0.19960256E-10
