atomic number =   11
effective nuclear charge =   11
electron count =   10
net charge =    1
basis set = approximate basis set limit (UGBS)      
exchange correlation functional = PW91PW91            
cutoff radius (picometer) =  300
number of shells =   50
prepared by = Thomas A. Manz      
prepared date = May 2010            
net magnetization =    0
density in atomic units:
0.20787245E+03
0.20607334E+02
0.61415877E+01
0.39712622E+01
0.28395123E+01
0.18721793E+01
0.11944902E+01
0.76536334E+00
0.47972971E+00
0.30174270E+00
0.18712559E+00
0.11529563E+00
0.73630393E-01
0.46710826E-01
0.29907860E-01
0.19135060E-01
0.12217317E-01
0.80069378E-02
0.52209748E-02
0.34175254E-02
0.22515166E-02
0.14893950E-02
0.99377031E-03
0.66608237E-03
0.44716004E-03
0.30080829E-03
0.20330706E-03
0.13907213E-03
0.94606949E-04
0.64236097E-04
0.43835447E-04
0.29839779E-04
0.20388148E-04
0.13889300E-04
0.94542711E-05
0.64694987E-05
0.44383069E-05
0.30364542E-05
0.20641226E-05
0.14080234E-05
0.96364272E-06
0.65438309E-06
0.44532678E-06
0.30346101E-06
0.20605056E-06
0.14014716E-06
0.95037599E-07
0.64497932E-07
0.43795925E-07
0.29897262E-07
