atomic number =   62
effective nuclear charge =   62
electron count =   48
net charge =   14
basis set = approximate basis set limit (UGBS)      
exchange correlation functional = PW91PW91            
cutoff radius (picometer) =  400
number of shells =   75
prepared by = Thomas A. Manz      
prepared date = July 2010           
net magnetization =    0
density in atomic units:
0.34547543E+05
0.26801355E+03
0.90198982E+02
0.24983131E+02
0.13723320E+02
0.99038153E+01
0.62660885E+01
0.34616442E+01
0.17901275E+01
0.93744951E+00
0.51792723E+00
0.30495703E+00
0.19062819E+00
0.12658539E+00
0.87052613E-01
0.60829371E-01
0.42595088E-01
0.29847378E-01
0.20979229E-01
0.14745757E-01
0.10340336E-01
0.72155851E-02
0.49949372E-02
0.34555753E-02
0.23870501E-02
0.16444847E-02
0.11311945E-02
0.77906408E-03
0.53074892E-03
0.36102018E-03
0.24834010E-03
0.17049203E-03
0.11586731E-03
0.78489727E-04
0.53735432E-04
0.36815487E-04
0.25081436E-04
0.17183582E-04
0.11860697E-04
0.81561029E-05
0.55899523E-05
0.38648045E-05
0.26787213E-05
0.18549694E-05
0.12885134E-05
0.89521996E-06
0.62252707E-06
0.43231736E-06
0.29864336E-06
0.20617736E-06
0.14206333E-06
0.97742465E-07
0.66738792E-07
0.45332747E-07
0.30765381E-07
0.20648633E-07
0.13688862E-07
0.90028873E-08
0.58679168E-08
0.37661643E-08
0.23730922E-08
0.14728888E-08
0.89376151E-09
0.52830107E-09
0.30170733E-09
0.16667383E-09
0.89692885E-10
0.47396937E-10
0.26087322E-10
0.16870050E-10
0.13832578E-10
0.13615669E-10
0.14330225E-10
0.14969588E-10
0.15090103E-10
