atomic number =   78
effective nuclear charge =   78
electron count =   28
net charge =   50
basis set = approximate basis set limit (UGBS)      
exchange correlation functional = PW91PW91            
cutoff radius (picometer) =  500
number of shells =  100
prepared by = Thomas A. Manz      
prepared date = July 2010           
net magnetization =    0
density in atomic units:
0.49566888E+06
0.48069601E+03
0.88098305E+02
0.84142027E+01
0.56361479E+00
0.52549049E-01
0.46865703E-02
0.31166981E-03
0.22195220E-04
0.21306635E-05
0.26790150E-06
0.21031374E-06
0.13467881E-06
0.31129574E-07
0.23839726E-08
0.17807180E-07
0.31485609E-07
0.27615814E-07
0.14930718E-07
0.42946886E-08
0.34696043E-09
0.11509275E-08
0.34724905E-08
0.50241158E-08
0.50718163E-08
0.39885060E-08
0.24877505E-08
0.11942477E-08
0.36310679E-09
0.42890063E-10
0.91025826E-10
0.32318478E-09
0.57887167E-09
0.76029133E-09
0.82989743E-09
0.79072066E-09
0.67179390E-09
0.51280180E-09
0.35171061E-09
0.21031982E-09
0.10416711E-09
0.37750244E-10
0.71685140E-11
0.49207734E-11
0.21061916E-10
0.47364283E-10
0.75351642E-10
0.99264465E-10
0.11671833E-09
0.12591413E-09
0.12686832E-09
0.12062401E-09
0.10909784E-09
0.94202812E-10
0.77587138E-10
0.60787597E-10
0.44961430E-10
0.31164186E-10
0.19910915E-10
0.11387002E-10
0.54657949E-11
0.19345662E-11
0.45808106E-12
0.60410341E-12
0.19532546E-11
0.40576453E-11
0.65810551E-11
0.92603815E-11
0.11802970E-10
0.14034839E-10
0.15816206E-10
0.17102493E-10
0.17888347E-10
0.18177192E-10
0.17993730E-10
0.17422168E-10
0.16513901E-10
0.15342011E-10
0.13991729E-10
0.12537536E-10
0.11018212E-10
0.94941641E-11
0.80183074E-11
0.66345072E-11
0.53697316E-11
0.42420746E-11
0.32498418E-11
0.24029869E-11
0.16992219E-11
0.11301460E-11
0.69759368E-12
0.38300762E-12
0.17458059E-12
0.61934202E-13
0.28500778E-13
0.61019169E-13
0.14545765E-12
0.27066400E-12
0.42539973E-12
0.59895047E-12
