atomic number =   95
effective nuclear charge =   95
electron count =   80
net charge =   15
basis set = approximate basis set limit (UGBS)      
exchange correlation functional = PW91PW91            
cutoff radius (picometer) =  300
number of shells =   50
prepared by = Thomas A. Manz      
prepared date = July 2010           
net magnetization =    0
density in atomic units:
0.13191102E+06
0.31957782E+03
0.11716999E+03
0.40188110E+02
0.14475768E+02
0.79802003E+01
0.48945928E+01
0.28587437E+01
0.15571331E+01
0.84327418E+00
0.45829153E+00
0.25675967E+00
0.15591514E+00
0.96575372E-01
0.61343364E-01
0.39211668E-01
0.25043521E-01
0.16380763E-01
0.10614910E-01
0.68660052E-02
0.44423365E-02
0.28666246E-02
0.18538102E-02
0.11963266E-02
0.76816126E-03
0.49128727E-03
0.31411348E-03
0.20281012E-03
0.12974074E-03
0.82667924E-04
0.52977881E-04
0.33885142E-04
0.21811113E-04
0.14035875E-04
0.90563590E-05
0.59045947E-05
0.38767089E-05
0.25489626E-05
0.16708905E-05
0.11035518E-05
0.73340573E-06
0.48410539E-06
0.32052429E-06
0.21232090E-06
0.13948632E-06
0.91458659E-07
0.59244524E-07
0.37920067E-07
0.23903986E-07
0.14841716E-07
