atomic number =   88
effective nuclear charge =   88
electron count =   62
net charge =   26
basis set = approximate basis set limit (UGBS)      
exchange correlation functional = PW91PW91            
cutoff radius (picometer) =  300
number of shells =   50
prepared by = Thomas A. Manz      
prepared date = July 2010           
net magnetization =    0
density in atomic units:
0.10491859E+06
0.29445175E+03
0.95090698E+02
0.43995766E+02
0.15071334E+02
0.44809999E+01
0.15109314E+01
0.60053694E+00
0.24116610E+00
0.98721556E-01
0.39145511E-01
0.14873672E-01
0.59246477E-02
0.22757240E-02
0.86855364E-03
0.32810570E-03
0.12116146E-03
0.47454752E-04
0.18416780E-04
0.72178168E-05
0.28591446E-05
0.11221859E-05
0.43175396E-06
0.15712496E-06
0.51530066E-07
0.14709568E-07
0.40632320E-08
0.21639393E-08
0.23494062E-08
0.25337030E-08
0.22827735E-08
0.17334306E-08
0.11278507E-08
0.62536082E-09
0.30600628E-09
0.17192853E-09
0.17484067E-09
0.25915325E-09
0.37377237E-09
0.47558840E-09
0.54176252E-09
0.56465793E-09
0.54507737E-09
0.49281168E-09
0.41888873E-09
0.33602310E-09
0.25354854E-09
0.17932779E-09
0.11818227E-09
0.72653231E-10
