atomic number =   68
effective nuclear charge =   68
electron count =   48
net charge =   20
basis set = approximate basis set limit (UGBS)      
exchange correlation functional = PW91PW91            
cutoff radius (picometer) =  500
number of shells =  100
prepared by = Thomas A. Manz      
prepared date = July 2010           
net magnetization =    0
density in atomic units:
0.32133603E+06
0.44585956E+03
0.11322511E+03
0.28290474E+02
0.17802626E+02
0.12305065E+02
0.70867085E+01
0.35535281E+01
0.17772554E+01
0.91631007E+00
0.50201392E+00
0.30503786E+00
0.19464973E+00
0.12848024E+00
0.89111634E-01
0.62680461E-01
0.43452110E-01
0.30284425E-01
0.21024806E-01
0.14363559E-01
0.98470422E-02
0.67841876E-02
0.46135075E-02
0.31233167E-02
0.21239533E-02
0.14380080E-02
0.97070128E-03
0.65931620E-03
0.44464771E-03
0.30044300E-03
0.20394834E-03
0.13746566E-03
0.92974442E-04
0.62993553E-04
0.42617205E-04
0.28695196E-04
0.19267713E-04
0.12941525E-04
0.87380813E-05
0.58822961E-05
0.39576835E-05
0.26668397E-05
0.17933061E-05
0.12182702E-05
0.82768514E-06
0.55737627E-06
0.37710734E-06
0.25755213E-06
0.17506639E-06
0.11902056E-06
0.80972079E-07
0.54953222E-07
0.37488050E-07
0.25649957E-07
0.17533139E-07
0.11968550E-07
0.81350553E-08
0.55409028E-08
0.37761638E-08
0.25812956E-08
0.17653531E-08
0.12091609E-08
0.83246787E-09
0.57464639E-09
0.39861642E-09
0.28095073E-09
0.20041220E-09
0.14490109E-09
0.10751947E-09
0.82154873E-10
0.65311076E-10
0.54119546E-10
0.46550944E-10
0.41379660E-10
0.37826506E-10
0.35152891E-10
0.33094257E-10
0.31280784E-10
0.29627432E-10
0.27982769E-10
0.26260093E-10
0.24460161E-10
0.22588724E-10
0.20694673E-10
0.18809653E-10
0.16917598E-10
0.15095078E-10
0.13324530E-10
0.11672330E-10
0.10093887E-10
0.86913098E-11
0.74010971E-11
0.62494177E-11
0.52727245E-11
0.44401275E-11
0.37347105E-11
0.31811530E-11
0.27374873E-11
0.24072053E-11
0.21736677E-11
