atomic number =   98
effective nuclear charge =   98
electron count =   80
net charge =   18
basis set = approximate basis set limit (UGBS)      
exchange correlation functional = PW91PW91            
cutoff radius (picometer) =  400
number of shells =   75
prepared by = Thomas A. Manz      
prepared date = July 2010           
net magnetization =    0
density in atomic units:
0.14434497E+06
0.44722488E+03
0.15907492E+03
0.66598930E+02
0.22795233E+02
0.11452268E+02
0.73869300E+01
0.44872980E+01
0.25203321E+01
0.13823608E+01
0.77035218E+00
0.44219181E+00
0.26270121E+00
0.16364814E+00
0.10512835E+00
0.68692096E-01
0.45112737E-01
0.29796153E-01
0.19846544E-01
0.13282851E-01
0.88974247E-02
0.59462842E-02
0.39466969E-02
0.26226325E-02
0.17420934E-02
0.11549204E-02
0.76502719E-03
0.50774653E-03
0.33320024E-03
0.21832899E-03
0.14491384E-03
0.95991192E-04
0.62897307E-04
0.41085048E-04
0.27165566E-04
0.17994411E-04
0.11860660E-04
0.78798603E-05
0.52884602E-05
0.35437633E-05
0.23732107E-05
0.16091867E-05
0.10976401E-05
0.75058711E-06
0.51669963E-06
0.35662353E-06
0.24687822E-06
0.17103824E-06
0.11805115E-06
0.81365442E-07
0.55914139E-07
0.38251631E-07
0.25818762E-07
0.17219827E-07
0.11344471E-07
0.72900104E-08
0.45369748E-08
0.27358331E-08
0.15890324E-08
0.88029373E-09
0.47287535E-09
0.26764965E-09
0.18899547E-09
0.18683349E-09
0.22684943E-09
0.28493230E-09
0.34530201E-09
0.39979911E-09
0.44140067E-09
0.46869986E-09
0.48193882E-09
0.48125492E-09
0.46668713E-09
0.44496853E-09
0.41527742E-09
