atomic number =    6
effective nuclear charge =    6
electron count =    4
net charge =    2
basis set = approximate basis set limit (UGBS)      
exchange correlation functional = PW91PW91            
cutoff radius (picometer) =  500
number of shells =  100
prepared by = Thomas A. Manz      
prepared date = May 2010            
net magnetization =    0
density in atomic units:
0.13164197E+03
0.25061232E+02
0.78786240E+01
0.25235841E+01
0.86340177E+00
0.38029268E+00
0.20542586E+00
0.14419083E+00
0.12290062E+00
0.11050738E+00
0.99169090E-01
0.87972336E-01
0.76169387E-01
0.64583018E-01
0.54551162E-01
0.45642238E-01
0.37546780E-01
0.30807532E-01
0.25139099E-01
0.20302743E-01
0.16419267E-01
0.13307293E-01
0.10705542E-01
0.85907672E-02
0.69106142E-02
0.55444874E-02
0.44413642E-02
0.35699124E-02
0.28583047E-02
0.22921786E-02
0.18433071E-02
0.14776421E-02
0.11876912E-02
0.95643848E-03
0.77033736E-03
0.61937934E-03
0.49777760E-03
0.40047304E-03
0.32334932E-03
0.26072760E-03
0.21029857E-03
0.16973172E-03
0.13684620E-03
0.11092707E-03
0.89867179E-04
0.72422357E-04
0.58502836E-04
0.47469475E-04
0.38401839E-04
0.31062460E-04
0.25126566E-04
0.20293417E-04
0.16436143E-04
0.13334903E-04
0.10808618E-04
0.87518129E-05
0.70741344E-05
0.57186385E-05
0.46248833E-05
0.37433613E-05
0.30272035E-05
0.24464348E-05
0.19788629E-05
0.15988602E-05
0.12906144E-05
0.10446354E-05
0.84509469E-06
0.68147403E-06
0.54941785E-06
0.44239982E-06
0.35705258E-06
0.28818067E-06
0.23232822E-06
0.18755848E-06
0.15112535E-06
0.12175572E-06
0.98163824E-07
0.79114621E-07
0.63842670E-07
0.51637873E-07
0.41713541E-07
0.33688359E-07
0.27222477E-07
0.22029161E-07
0.17888370E-07
0.14568721E-07
0.11875485E-07
0.97030881E-08
0.79459817E-08
0.65111259E-08
0.53631943E-08
0.44274047E-08
0.36625292E-08
0.30472018E-08
0.25430746E-08
0.21306747E-08
0.17956991E-08
0.15182245E-08
0.12886404E-08
0.10999646E-08
