atomic number =    8
effective nuclear charge =    8
electron count =    4
net charge =    4
basis set = approximate basis set limit (UGBS)      
exchange correlation functional = PW91PW91            
cutoff radius (picometer) =  500
number of shells =  100
prepared by = Thomas A. Manz      
prepared date = May 2010            
net magnetization =    0
density in atomic units:
0.32429706E+03
0.36258793E+02
0.76614308E+01
0.17875322E+01
0.59909731E+00
0.38122845E+00
0.31340000E+00
0.26759633E+00
0.22417909E+00
0.18088047E+00
0.14189674E+00
0.11046862E+00
0.83960719E-01
0.62682562E-01
0.47265492E-01
0.35548083E-01
0.26288951E-01
0.19524679E-01
0.14484206E-01
0.10641838E-01
0.78696320E-02
0.58607659E-02
0.43330789E-02
0.32010241E-02
0.23782947E-02
0.17643273E-02
0.13082103E-02
0.97595464E-03
0.72519021E-03
0.54048240E-03
0.40469854E-03
0.30191109E-03
0.22614683E-03
0.16987970E-03
0.12768415E-03
0.95784526E-04
0.71828450E-04
0.53952706E-04
0.40729185E-04
0.30705403E-04
0.23161763E-04
0.17493394E-04
0.13196945E-04
0.10027485E-04
0.76161823E-05
0.57457246E-05
0.43476043E-05
0.33093932E-05
0.25088916E-05
0.19015897E-05
0.14410888E-05
0.10897489E-05
0.82686853E-06
0.62875381E-06
0.47741054E-06
0.36195524E-06
0.27374722E-06
0.20704209E-06
0.15667997E-06
0.11868269E-06
0.89798355E-07
0.67886511E-07
0.51372801E-07
0.38822467E-07
0.29297974E-07
0.22185791E-07
0.16786611E-07
0.12643723E-07
0.95170503E-08
0.71484596E-08
0.53827587E-08
0.40517238E-08
0.30429121E-08
0.22883178E-08
0.17158108E-08
0.12860332E-08
0.96491870E-09
0.72405459E-09
0.54486043E-09
0.41211431E-09
0.31205488E-09
0.23720595E-09
0.18133771E-09
0.13977067E-09
0.10898039E-09
0.85943488E-10
0.68370178E-10
0.55089780E-10
0.44790970E-10
0.36698748E-10
0.30424458E-10
0.25414330E-10
0.21304493E-10
0.17983554E-10
0.15265574E-10
0.12988282E-10
0.11120955E-10
0.95580557E-11
0.82582422E-11
0.71949803E-11
