atomic number =   88
effective nuclear charge =   88
electron count =   10
net charge =   78
basis set = approximate basis set limit (UGBS)      
exchange correlation functional = PW91PW91            
cutoff radius (picometer) =  300
number of shells =   50
prepared by = Thomas A. Manz      
prepared date = July 2010           
net magnetization =    0
density in atomic units:
0.10000836E+06
0.37599533E+01
0.25039706E-02
0.27656119E-04
0.66607363E-05
0.17348588E-05
0.12774434E-05
0.66420040E-06
0.52159503E-07
0.22925818E-06
0.15244532E-06
0.18660581E-07
0.11069298E-07
0.36796052E-07
0.35611130E-07
0.16752319E-07
0.29538445E-08
0.50023258E-09
0.34806860E-08
0.61316530E-08
0.62077485E-08
0.43981236E-08
0.22271309E-08
0.69260087E-09
0.65580257E-10
0.13244411E-09
0.49979731E-09
0.84377982E-09
0.10178378E-08
0.98880437E-09
0.81289386E-09
0.57137561E-09
0.33995831E-09
0.15973746E-09
0.49527979E-10
0.54911986E-11
0.90997904E-11
0.40727258E-10
0.82776501E-10
0.12051400E-09
0.14613367E-09
0.15723783E-09
0.15410492E-09
0.13977762E-09
0.11813571E-09
0.93331266E-10
0.68416016E-10
0.46059417E-10
0.27799745E-10
0.14425924E-10
