atomic number =  100
effective nuclear charge =  100
electron count =   86
net charge =   14
basis set = approximate basis set limit (UGBS)      
exchange correlation functional = PW91PW91            
cutoff radius (picometer) =  400
number of shells =   75
prepared by = Thomas A. Manz      
prepared date = July 2010           
net magnetization =    0
density in atomic units:
0.15290353E+06
0.45038086E+03
0.16572702E+03
0.64595421E+02
0.22510906E+02
0.12019202E+02
0.75183315E+01
0.43284979E+01
0.23862607E+01
0.13881881E+01
0.89375377E+00
0.63041687E+00
0.47060126E+00
0.36242867E+00
0.28076068E+00
0.21617535E+00
0.16453506E+00
0.12414226E+00
0.93368143E-01
0.69948703E-01
0.52201439E-01
0.38745198E-01
0.28563587E-01
0.21049926E-01
0.15505664E-01
0.11407308E-01
0.83922762E-02
0.61881160E-02
0.45277462E-02
0.33132576E-02
0.24492580E-02
0.18089797E-02
0.13260836E-02
0.97033067E-03
0.71643706E-03
0.52940007E-03
0.38954362E-03
0.28799186E-03
0.21419968E-03
0.15881839E-03
0.11744475E-03
0.87458568E-04
0.65243097E-04
0.48640508E-04
0.36355414E-04
0.27179984E-04
0.20345991E-04
0.15218340E-04
0.11349029E-04
0.84691965E-05
0.63197213E-05
0.47210747E-05
0.35133055E-05
0.26138391E-05
0.19490612E-05
0.14481230E-05
0.10707028E-05
0.79235741E-06
0.58657491E-06
0.43316592E-06
0.31901203E-06
0.23520309E-06
0.17310906E-06
0.12697819E-06
0.92919279E-07
0.67883853E-07
0.49654911E-07
0.36193448E-07
0.26284317E-07
0.19106741E-07
0.13916231E-07
0.10063963E-07
0.72617010E-08
0.52440687E-08
0.37886365E-08
