atomic number =   91
effective nuclear charge =   91
electron count =   86
net charge =    5
basis set = approximate basis set limit (UGBS)      
exchange correlation functional = PW91PW91            
cutoff radius (picometer) =  500
number of shells =  100
prepared by = Thomas A. Manz      
prepared date = July 2010           
net magnetization =    0
density in atomic units:
0.80547850E+06
0.68210779E+03
0.15363634E+03
0.78536758E+02
0.29592716E+02
0.13539737E+02
0.82171211E+01
0.56093001E+01
0.38280642E+01
0.24945574E+01
0.15963275E+01
0.10642401E+01
0.73412991E+00
0.53183246E+00
0.41158649E+00
0.32883936E+00
0.26408979E+00
0.21418200E+00
0.17342369E+00
0.13884567E+00
0.11101367E+00
0.88632070E-01
0.69928713E-01
0.54809209E-01
0.42925272E-01
0.33414565E-01
0.25889114E-01
0.20086501E-01
0.15476328E-01
0.11918559E-01
0.91899475E-02
0.70452639E-02
0.54086153E-02
0.41546295E-02
0.31880473E-02
0.24385138E-02
0.18625634E-02
0.14236565E-02
0.10926564E-02
0.83722710E-03
0.64172607E-03
0.49244339E-03
0.37751367E-03
0.29141488E-03
0.22489841E-03
0.17248811E-03
0.13268800E-03
0.10265353E-03
0.79115875E-04
0.60958668E-04
0.46953515E-04
0.36084508E-04
0.27810620E-04
0.21469872E-04
0.16544809E-04
0.12724832E-04
0.97608190E-05
0.74802538E-05
0.57357024E-05
0.43967266E-05
0.33678832E-05
0.25747531E-05
0.19711320E-05
0.15051381E-05
0.11480827E-05
0.87765363E-06
0.67035995E-06
0.50967969E-06
0.38714339E-06
0.29339958E-06
0.22278660E-06
0.16898599E-06
0.12777359E-06
0.96606527E-07
0.72708730E-07
0.54578500E-07
0.40893962E-07
0.30538711E-07
0.22770545E-07
0.16979048E-07
0.12595001E-07
0.93005816E-08
0.68517405E-08
0.50370663E-08
0.37072001E-08
0.27303844E-08
0.20098374E-08
0.14817725E-08
0.10960118E-08
0.81311397E-09
0.61050931E-09
0.46326160E-09
0.35684253E-09
0.28120004E-09
0.22681179E-09
0.18827639E-09
0.16137264E-09
0.14264932E-09
0.13011321E-09
0.12225546E-09
