atomic number =   80
effective nuclear charge =   80
electron count =   68
net charge =   12
basis set = approximate basis set limit (UGBS)      
exchange correlation functional = PW91PW91            
cutoff radius (picometer) =  300
number of shells =   50
prepared by = Thomas A. Manz      
prepared date = July 2010           
net magnetization =    0
density in atomic units:
0.78157062E+05
0.27658926E+03
0.76050110E+02
0.43077515E+02
0.19297279E+02
0.75087576E+01
0.35047803E+01
0.20223141E+01
0.12280244E+01
0.75409150E+00
0.44708306E+00
0.25606689E+00
0.14941460E+00
0.84944561E-01
0.48147529E-01
0.27002722E-01
0.14956558E-01
0.85196383E-02
0.47896719E-02
0.26874715E-02
0.15105456E-02
0.84757118E-03
0.47791214E-03
0.26963619E-03
0.15170274E-03
0.85304775E-04
0.48142738E-04
0.27613174E-04
0.15697031E-04
0.88800161E-05
0.50529688E-05
0.28589461E-05
0.16234313E-05
0.91752253E-06
0.51834968E-06
0.29654001E-06
0.17167339E-06
0.10039999E-06
0.59321660E-07
0.36129936E-07
0.22780378E-07
0.14668541E-07
0.97649728E-08
0.67013168E-08
0.46693822E-08
0.33074268E-08
0.23468010E-08
0.16561252E-08
0.11540620E-08
0.78930162E-09
