atomic number =   92
effective nuclear charge =   92
electron count =   62
net charge =   30
basis set = approximate basis set limit (UGBS)      
exchange correlation functional = PW91PW91            
cutoff radius (picometer) =  300
number of shells =   50
prepared by = Thomas A. Manz      
prepared date = July 2010           
net magnetization =    0
density in atomic units:
0.11991994E+06
0.30412851E+03
0.10450859E+03
0.41967030E+02
0.12624241E+02
0.34606407E+01
0.11111101E+01
0.41612524E+00
0.15271883E+00
0.56090184E-01
0.19822350E-01
0.67031779E-02
0.24050465E-02
0.82981255E-03
0.28229557E-03
0.93954885E-04
0.29911242E-04
0.10056466E-04
0.33275594E-05
0.11267952E-05
0.40042244E-06
0.14918102E-06
0.58058536E-07
0.22783091E-07
0.88781595E-08
0.38636174E-08
0.24840789E-08
0.23582007E-08
0.24297120E-08
0.23193814E-08
0.19799125E-08
0.15021310E-08
0.10159958E-08
0.60613287E-09
0.32311664E-09
0.17337180E-09
0.12882936E-09
0.15420262E-09
0.21503523E-09
0.28029568E-09
0.33053033E-09
0.35675868E-09
0.35631204E-09
0.33281425E-09
0.29241662E-09
0.24295085E-09
0.19057188E-09
0.14102144E-09
0.98212070E-10
0.64534891E-10
