atomic number =   80
effective nuclear charge =   80
electron count =    2
net charge =   78
basis set = approximate basis set limit (UGBS)      
exchange correlation functional = PW91PW91            
cutoff radius (picometer) =  300
number of shells =   50
prepared by = Thomas A. Manz      
prepared date = July 2010           
net magnetization =    0
density in atomic units:
0.65064215E+05
0.33363182E-03
0.37644098E-04
0.12170854E-04
0.27044725E-05
0.73659606E-06
0.51553820E-06
0.27494428E-06
0.20426342E-07
0.92425616E-07
0.62111937E-07
0.76124413E-08
0.43349582E-08
0.14790159E-07
0.14382170E-07
0.67745676E-08
0.11869651E-08
0.18706624E-09
0.13901611E-08
0.24640354E-08
0.24981224E-08
0.17699644E-08
0.89514102E-09
0.27673505E-09
0.24302334E-10
0.51623737E-10
0.19997497E-09
0.33877604E-09
0.40901776E-09
0.39728734E-09
0.32646802E-09
0.22928831E-09
0.13616502E-09
0.63738778E-10
0.19499164E-10
0.18931718E-11
0.34429109E-11
0.16237924E-10
0.33197719E-10
0.48391301E-10
0.58712153E-10
0.63176520E-10
0.61877399E-10
0.56101679E-10
0.47375957E-10
0.37401787E-10
0.27393499E-10
0.18410896E-10
0.11083138E-10
0.57209376E-11
