atomic number =   95
effective nuclear charge =   95
electron count =   80
net charge =   15
basis set = approximate basis set limit (UGBS)      
exchange correlation functional = PW91PW91            
cutoff radius (picometer) =  400
number of shells =   75
prepared by = Thomas A. Manz      
prepared date = July 2010           
net magnetization =    0
density in atomic units:
0.13191102E+06
0.44374655E+03
0.14886855E+03
0.68998428E+02
0.24121355E+02
0.11151524E+02
0.72160449E+01
0.46451235E+01
0.27754750E+01
0.15959703E+01
0.91800994E+00
0.53680497E+00
0.32205719E+00
0.20166935E+00
0.13015567E+00
0.85606046E-01
0.56769066E-01
0.37981428E-01
0.25692474E-01
0.17496856E-01
0.11943984E-01
0.81431260E-02
0.55193724E-02
0.37460062E-02
0.25416969E-02
0.17213329E-02
0.11647078E-02
0.78944396E-03
0.52928453E-03
0.35435430E-03
0.24013761E-03
0.16240678E-03
0.10870938E-03
0.72551229E-04
0.48967315E-04
0.33099259E-04
0.22256334E-04
0.15068844E-04
0.10291355E-04
0.70096739E-05
0.47649287E-05
0.32725861E-05
0.22560637E-05
0.15562895E-05
0.10780981E-05
0.74770514E-06
0.51940390E-06
0.36048002E-06
0.24891000E-06
0.17156727E-06
0.11796847E-06
0.80809407E-07
0.54792370E-07
0.36816488E-07
0.24598549E-07
0.16136667E-07
0.10363155E-07
0.65265713E-08
0.40127079E-08
0.23816273E-08
0.13531732E-08
0.73979450E-09
0.38948511E-09
0.20744104E-09
0.13094595E-09
0.11555895E-09
0.13230361E-09
0.16279958E-09
0.19544803E-09
0.22394325E-09
0.24512611E-09
0.25719044E-09
0.26150571E-09
0.25773322E-09
0.24773528E-09
