atomic number =   88
effective nuclear charge =   88
electron count =    2
net charge =   86
basis set = approximate basis set limit (UGBS)      
exchange correlation functional = PW91PW91            
cutoff radius (picometer) =  300
number of shells =   50
prepared by = Thomas A. Manz      
prepared date = July 2010           
net magnetization =    0
density in atomic units:
0.86580766E+05
0.59491186E-03
0.53806045E-04
0.17333852E-04
0.38120554E-05
0.10496391E-05
0.72511125E-06
0.38923551E-06
0.28701024E-07
0.12998086E-06
0.87613493E-07
0.10784604E-07
0.60689085E-08
0.20788519E-07
0.20243011E-07
0.95464561E-08
0.16766604E-08
0.26175850E-09
0.19514699E-08
0.34633554E-08
0.35133056E-08
0.24904512E-08
0.12601196E-08
0.38993817E-09
0.34344850E-10
0.72345609E-10
0.28081820E-09
0.47601656E-09
0.57490762E-09
0.55855914E-09
0.45909593E-09
0.32246081E-09
0.19154975E-09
0.89682400E-10
0.27455576E-10
0.26720598E-11
0.48258034E-11
0.22802007E-10
0.46635768E-10
0.67999356E-10
0.82512920E-10
0.88777007E-10
0.86976606E-10
0.78864242E-10
0.66601676E-10
0.52586557E-10
0.38514390E-10
0.25888455E-10
0.15584919E-10
0.80460040E-11
