atomic number =   95
effective nuclear charge =   95
electron count =   10
net charge =   85
basis set = approximate basis set limit (UGBS)      
exchange correlation functional = PW91PW91            
cutoff radius (picometer) =  300
number of shells =   50
prepared by = Thomas A. Manz      
prepared date = July 2010           
net magnetization =    0
density in atomic units:
0.12527515E+06
0.18733816E+01
0.73928159E-03
0.38084068E-04
0.87916733E-05
0.23563268E-05
0.16838488E-05
0.88984638E-06
0.69348665E-07
0.30227594E-06
0.20266189E-06
0.25292444E-07
0.14520875E-07
0.48462869E-07
0.47095867E-07
0.22262128E-07
0.39840580E-08
0.67280653E-09
0.45739026E-08
0.80770919E-08
0.81942551E-08
0.58187215E-08
0.29560909E-08
0.92654623E-09
0.92539025E-10
0.17537251E-09
0.65729977E-09
0.11106236E-08
0.13413840E-08
0.13044698E-08
0.10737631E-08
0.75590884E-09
0.45060627E-09
0.21258721E-09
0.66646931E-10
0.79918173E-11
0.12268174E-10
0.53633795E-10
0.10891150E-09
0.15862371E-09
0.19244792E-09
0.20723899E-09
0.20320755E-09
0.18443456E-09
0.15596260E-09
0.12333391E-09
0.90509683E-10
0.61032256E-10
0.36910790E-10
0.19226395E-10
