atomic number =   89
effective nuclear charge =   89
electron count =   86
net charge =    3
basis set = approximate basis set limit (UGBS)      
exchange correlation functional = PW91PW91            
cutoff radius (picometer) =  400
number of shells =   75
prepared by = Thomas A. Manz      
prepared date = July 2010           
net magnetization =    0
density in atomic units:
0.10863859E+06
0.43610208E+03
0.12718387E+03
0.70017128E+02
0.27804321E+02
0.11424139E+02
0.68294930E+01
0.46672192E+01
0.30946052E+01
0.19826193E+01
0.12762525E+01
0.84786439E+00
0.59182733E+00
0.43897694E+00
0.33999568E+00
0.27006322E+00
0.21665567E+00
0.17433900E+00
0.14042905E+00
0.11271243E+00
0.90014026E-01
0.71341127E-01
0.56055259E-01
0.43864302E-01
0.34191638E-01
0.26531352E-01
0.20521548E-01
0.15856463E-01
0.12137891E-01
0.92719365E-02
0.71309879E-02
0.54715355E-02
0.41652992E-02
0.31625917E-02
0.24185292E-02
0.18491753E-02
0.14076879E-02
0.10753081E-02
0.82522316E-03
0.63102180E-03
0.48100727E-03
0.36864722E-03
0.28273326E-03
0.21655459E-03
0.16612360E-03
0.12739316E-03
0.97741657E-04
0.74918666E-04
0.57246940E-04
0.43767122E-04
0.33460845E-04
0.25610399E-04
0.19543188E-04
0.14909547E-04
0.11408737E-04
0.87020744E-05
0.66185585E-05
0.50378790E-05
0.38413491E-05
0.29221180E-05
0.22208601E-05
0.16891089E-05
0.12845938E-05
0.97349459E-06
0.73722214E-06
0.55734955E-06
0.42210567E-06
0.31851195E-06
0.23967897E-06
0.18048556E-06
0.13605876E-06
0.10188893E-06
0.75983912E-07
0.56630299E-07
0.42202945E-07
