atomic number =   85
effective nuclear charge =   85
electron count =   10
net charge =   75
basis set = approximate basis set limit (UGBS)      
exchange correlation functional = PW91PW91            
cutoff radius (picometer) =  300
number of shells =   50
prepared by = Thomas A. Manz      
prepared date = July 2010           
net magnetization =    0
density in atomic units:
0.90077695E+05
0.49917955E+01
0.43743583E-02
0.23835451E-04
0.58021565E-05
0.14925371E-05
0.11105747E-05
0.57416003E-06
0.45494151E-07
0.19930391E-06
0.13219007E-06
0.16136170E-07
0.96663637E-08
0.32002482E-07
0.30936814E-07
0.14540849E-07
0.25603140E-08
0.43787843E-09
0.30311347E-08
0.53331388E-08
0.53967772E-08
0.38222652E-08
0.19349935E-08
0.60148370E-09
0.57026432E-10
0.11560478E-09
0.43513046E-09
0.73411488E-09
0.88527180E-09
0.85992719E-09
0.70683542E-09
0.49686211E-09
0.29558708E-09
0.13888890E-09
0.43070263E-10
0.47918392E-11
0.79498899E-11
0.35458515E-10
0.72036759E-10
0.10483674E-09
0.12710054E-09
0.13675613E-09
0.13399536E-09
0.12152772E-09
0.10272842E-09
0.81172312E-10
0.59503381E-10
0.40054744E-10
0.24174130E-10
0.12547120E-10
