atomic number =  106
effective nuclear charge =  106
electron count =   36
net charge =   70
basis set = approximate basis set limit (UGBS)      
exchange correlation functional = PW91PW91            
cutoff radius (picometer) =  400
number of shells =   75
prepared by = Thomas A. Manz      
prepared date = July 2010           
net magnetization =    0
density in atomic units:
0.17894816E+06
0.31111221E+03
0.54195309E+02
0.15414033E+02
0.26358147E+01
0.30057478E+00
0.29501038E-01
0.30826272E-02
0.29884791E-03
0.26864753E-04
0.18476404E-05
0.53638303E-06
0.21953348E-06
0.31828741E-07
0.59057076E-07
0.12195115E-06
0.11892261E-06
0.69957046E-07
0.25514426E-07
0.63132748E-08
0.68548345E-08
0.14529524E-07
0.19813509E-07
0.19506903E-07
0.15117873E-07
0.94114441E-08
0.46374118E-08
0.17922881E-08
0.79103935E-09
0.10741054E-08
0.18782709E-08
0.26590794E-08
0.31166194E-08
0.31400567E-08
0.28085374E-08
0.22607509E-08
0.16345219E-08
0.10637765E-08
0.61924993E-09
0.31589589E-09
0.15446210E-09
0.11212051E-09
0.14894458E-09
0.22869838E-09
0.31977779E-09
0.40031264E-09
0.45657692E-09
0.48271798E-09
0.47899534E-09
0.44960324E-09
0.40148010E-09
0.34229081E-09
0.27809899E-09
0.21540289E-09
0.15920303E-09
0.11095304E-09
0.72475560E-10
0.44607894E-10
0.26579924E-10
0.16980339E-10
0.14295758E-10
0.16839705E-10
0.22923606E-10
0.31087702E-10
0.40032200E-10
0.48687082E-10
0.56242837E-10
0.62275893E-10
0.66544624E-10
0.68850231E-10
0.69251507E-10
0.67974966E-10
0.65231098E-10
0.61286913E-10
0.56508555E-10
