atomic number =  100
effective nuclear charge =  100
electron count =   12
net charge =   88
basis set = approximate basis set limit (UGBS)      
exchange correlation functional = PW91PW91            
cutoff radius (picometer) =  300
number of shells =   50
prepared by = Thomas A. Manz      
prepared date = July 2010           
net magnetization =    0
density in atomic units:
0.14995003E+06
0.26401329E+02
0.60498446E+00
0.66368552E-02
0.52341224E-04
0.29280211E-05
0.25003426E-05
0.12396080E-05
0.10462333E-06
0.43879655E-06
0.28830493E-06
0.35374988E-07
0.21910084E-07
0.70612259E-07
0.67968706E-07
0.31931080E-07
0.56752576E-08
0.10400412E-08
0.67296626E-08
0.11770144E-07
0.11895461E-07
0.84267748E-08
0.42733435E-08
0.13375492E-08
0.13695545E-09
0.26321853E-09
0.96459274E-09
0.16216576E-08
0.19545030E-08
0.18987651E-08
0.15615425E-08
0.10987686E-08
0.65486050E-09
0.30905201E-09
0.97212280E-10
0.12207670E-10
0.18628807E-10
0.78896008E-10
0.15930131E-09
0.23156659E-09
0.28067290E-09
0.30215838E-09
0.29615402E-09
0.26878852E-09
0.22727929E-09
0.17973646E-09
0.13194215E-09
0.88964891E-10
0.53855996E-10
0.28097283E-10
