atomic number =   90
effective nuclear charge =   90
electron count =   12
net charge =   78
basis set = approximate basis set limit (UGBS)      
exchange correlation functional = PW91PW91            
cutoff radius (picometer) =  300
number of shells =   50
prepared by = Thomas A. Manz      
prepared date = July 2010           
net magnetization =    0
density in atomic units:
0.11035267E+06
0.31369875E+02
0.15173248E+01
0.32978941E-01
0.57139824E-03
0.79814636E-05
0.16957139E-05
0.77998720E-06
0.61881472E-07
0.27015679E-06
0.17848582E-06
0.21633278E-07
0.13278396E-07
0.43592486E-07
0.42014868E-07
0.19698000E-07
0.34489809E-08
0.60313510E-09
0.41456363E-08
0.72721678E-08
0.73478348E-08
0.51976552E-08
0.26275475E-08
0.81448542E-09
0.76522184E-10
0.15878529E-09
0.59503535E-09
0.10021662E-08
0.12075057E-08
0.11721135E-08
0.96294428E-09
0.67646005E-09
0.40212234E-09
0.18872620E-09
0.58358256E-10
0.64243142E-11
0.10907804E-10
0.48521596E-10
0.98427995E-10
0.14315846E-09
0.17350173E-09
0.18658576E-09
0.18277893E-09
0.16576018E-09
0.14001809E-09
0.11060569E-09
0.81087283E-10
0.54572569E-10
0.32917020E-10
0.17067764E-10
