atomic number =  106
effective nuclear charge =  106
electron count =    4
net charge =  102
basis set = approximate basis set limit (UGBS)      
exchange correlation functional = PW91PW91            
cutoff radius (picometer) =  500
number of shells =  100
prepared by = Thomas A. Manz      
prepared date = July 2010           
net magnetization =    0
density in atomic units:
0.11899666E+07
0.59104567E+01
0.65662578E-03
0.72916198E-04
0.18378010E-04
0.15288022E-04
0.43149762E-05
0.16475369E-05
0.23103496E-05
0.38983410E-06
0.15948093E-06
0.44707900E-06
0.31435630E-06
0.72735439E-07
0.46036406E-08
0.40913690E-07
0.73230304E-07
0.64276975E-07
0.34618903E-07
0.97818900E-08
0.60484007E-09
0.25215965E-08
0.79591098E-08
0.11580849E-07
0.11691144E-07
0.91723145E-08
0.56916876E-08
0.27013141E-08
0.78892748E-09
0.61803541E-10
0.18510155E-09
0.73019074E-09
0.13250270E-08
0.17445004E-08
0.19037847E-08
0.18108700E-08
0.15346864E-08
0.11671972E-08
0.79613982E-09
0.47162385E-09
0.22906822E-09
0.78422699E-10
0.10305769E-10
0.70703829E-11
0.45721482E-10
0.10729747E-09
0.17220109E-09
0.22737563E-09
0.26737870E-09
0.28818326E-09
0.28989663E-09
0.27516861E-09
0.24839913E-09
0.21395841E-09
0.17572253E-09
0.13714030E-09
0.10093096E-09
0.69461270E-10
0.43877964E-10
0.24591279E-10
0.11288586E-10
0.34605825E-11
0.32111244E-12
0.86944048E-12
0.41383320E-11
0.90966939E-11
0.14980628E-10
0.21174179E-10
0.27022540E-10
0.32158561E-10
0.36224624E-10
0.39154603E-10
0.40913009E-10
0.41432649E-10
0.41061363E-10
0.39685075E-10
0.37557159E-10
0.34841550E-10
0.31727801E-10
0.28387999E-10
0.24909403E-10
0.21422388E-10
0.18049198E-10
0.14881350E-10
0.12005807E-10
0.94466379E-11
0.71976969E-11
0.52835813E-11
0.36985926E-11
0.24218134E-11
0.14563055E-11
0.76020212E-12
0.30505091E-12
0.66837432E-13
0.77446450E-14
0.97226894E-13
0.30308763E-12
0.60033976E-12
0.96397803E-12
0.13665309E-11
