atomic number =   14
effective nuclear charge =   14
electron count =   10
net charge =    4
basis set = approximate basis set limit (UGBS)      
exchange correlation functional = PW91PW91            
cutoff radius (picometer) =  300
number of shells =   50
prepared by = Thomas A. Manz      
prepared date = May 2010            
net magnetization =    0
density in atomic units:
0.36872272E+03
0.24855436E+02
0.11109472E+02
0.68778563E+01
0.39152086E+01
0.19799095E+01
0.97409630E+00
0.49020109E+00
0.23949951E+00
0.11755846E+00
0.56498069E-01
0.26748935E-01
0.13359979E-01
0.65849922E-02
0.32716969E-02
0.16199882E-02
0.79366990E-03
0.40430212E-03
0.20353541E-03
0.10252449E-03
0.51835072E-04
0.26151069E-04
0.13254703E-04
0.67139445E-05
0.33858935E-05
0.17077996E-05
0.86719967E-06
0.45123227E-06
0.23390071E-06
0.12147463E-06
0.63991116E-07
0.33682927E-07
0.17853074E-07
0.94082475E-08
0.49279634E-08
0.25923761E-08
0.13617900E-08
0.71013628E-09
0.36637637E-09
0.19187560E-09
0.10310817E-09
0.56662425E-10
0.32890378E-10
0.20265387E-10
0.13151860E-10
0.89442655E-11
0.62496341E-11
0.44318819E-11
0.31799006E-11
0.23228895E-11
