atomic number =   78
effective nuclear charge =   78
electron count =   48
net charge =   30
basis set = approximate basis set limit (UGBS)      
exchange correlation functional = PW91PW91            
cutoff radius (picometer) =  400
number of shells =   75
prepared by = Thomas A. Manz      
prepared date = July 2010           
net magnetization =    0
density in atomic units:
0.72163984E+05
0.37515247E+03
0.71202217E+02
0.33913254E+02
0.20002617E+02
0.86896534E+01
0.34935741E+01
0.14587952E+01
0.67516047E+00
0.35949481E+00
0.20771143E+00
0.12283184E+00
0.72112888E-01
0.42259015E-01
0.24498465E-01
0.14013672E-01
0.78823864E-02
0.44066021E-02
0.24703259E-02
0.13892170E-02
0.77909802E-03
0.43534007E-03
0.24040199E-03
0.13311944E-03
0.73753909E-04
0.40868508E-04
0.22711563E-04
0.12721201E-04
0.70606452E-05
0.39318120E-05
0.22423610E-05
0.12807633E-05
0.72273235E-06
0.40593522E-06
0.23101649E-06
0.13075082E-06
0.72640283E-07
0.40149803E-07
0.22077598E-07
0.11826059E-07
0.61581487E-08
0.31874836E-08
0.16427978E-08
0.86220048E-09
0.49041543E-09
0.32136555E-09
0.24720168E-09
0.21234588E-09
0.19004646E-09
0.16939739E-09
0.14693270E-09
0.12296476E-09
0.98671162E-10
0.75981298E-10
0.56454470E-10
0.40440103E-10
0.28364181E-10
0.20316250E-10
0.15808190E-10
0.14193809E-10
0.14811903E-10
0.16950332E-10
0.19989985E-10
0.23396819E-10
0.26712303E-10
0.29591711E-10
0.31799625E-10
0.33268870E-10
0.33885846E-10
0.33788496E-10
0.32981270E-10
0.31502030E-10
0.29517163E-10
0.27162749E-10
0.24591782E-10
