atomic number =  100
effective nuclear charge =  100
electron count =    4
net charge =   96
basis set = approximate basis set limit (UGBS)      
exchange correlation functional = PW91PW91            
cutoff radius (picometer) =  300
number of shells =   50
prepared by = Thomas A. Manz      
prepared date = July 2010           
net magnetization =    0
density in atomic units:
0.14487755E+06
0.32398248E+00
0.25217442E-03
0.45190078E-04
0.10321012E-04
0.27580099E-05
0.19791578E-05
0.10418574E-05
0.78838141E-07
0.35544534E-06
0.23726469E-06
0.28787001E-07
0.16874568E-07
0.57007178E-07
0.55242527E-07
0.25946099E-07
0.45186761E-08
0.73021317E-09
0.53785318E-08
0.95016333E-08
0.96179429E-08
0.68059314E-08
0.34374006E-08
0.10599814E-08
0.92400317E-10
0.20068139E-09
0.77327550E-09
0.13076139E-08
0.15772784E-08
0.15314150E-08
0.12576651E-08
0.88280078E-09
0.52393989E-09
0.24502467E-09
0.74814918E-10
0.72181371E-11
0.13385877E-10
0.62828659E-10
0.12824720E-09
0.18680937E-09
0.22654076E-09
0.24363006E-09
0.23863633E-09
0.21630711E-09
0.18264260E-09
0.14417584E-09
0.10556490E-09
0.70939955E-10
0.42685647E-10
0.22022769E-10
