atomic number =   90
effective nuclear charge =   90
electron count =   10
net charge =   80
basis set = approximate basis set limit (UGBS)      
exchange correlation functional = PW91PW91            
cutoff radius (picometer) =  300
number of shells =   50
prepared by = Thomas A. Manz      
prepared date = July 2010           
net magnetization =    0
density in atomic units:
0.10693644E+06
0.30969071E+01
0.17376358E-02
0.30532916E-04
0.72555367E-05
0.19053548E-05
0.13918059E-05
0.72681900E-06
0.56837475E-07
0.24979272E-06
0.16645050E-06
0.20454157E-07
0.12031843E-07
0.40075861E-07
0.38826592E-07
0.18284220E-07
0.32325658E-08
0.54525778E-09
0.37878594E-08
0.66777019E-08
0.67642913E-08
0.47943853E-08
0.24294253E-08
0.75649370E-09
0.72174516E-10
0.14419715E-09
0.54403404E-09
0.91877334E-09
0.11086687E-08
0.10772400E-08
0.88584107E-09
0.62283145E-09
0.37067532E-09
0.17429105E-09
0.54125732E-10
0.60662066E-11
0.99301409E-11
0.44330387E-10
0.90125157E-10
0.13121533E-09
0.15914085E-09
0.17122503E-09
0.16781240E-09
0.15224666E-09
0.12864813E-09
0.10168210E-09
0.74567845E-10
0.50211238E-10
0.30308960E-10
0.15736966E-10
