atomic number =   93
effective nuclear charge =   93
electron count =   80
net charge =   13
basis set = approximate basis set limit (UGBS)      
exchange correlation functional = PW91PW91            
cutoff radius (picometer) =  400
number of shells =   75
prepared by = Thomas A. Manz      
prepared date = July 2010           
net magnetization =    0
density in atomic units:
0.12390760E+06
0.44151175E+03
0.14158377E+03
0.69961349E+02
0.25230192E+02
0.11047249E+02
0.70364084E+01
0.46783409E+01
0.29150071E+01
0.17376707E+01
0.10273147E+01
0.61215144E+00
0.37160018E+00
0.23417051E+00
0.15170757E+00
0.10014626E+00
0.66746049E-01
0.44968769E-01
0.30688656E-01
0.21115780E-01
0.14581296E-01
0.10064456E-01
0.69112037E-02
0.47530532E-02
0.32681802E-02
0.22429344E-02
0.15379080E-02
0.10561937E-02
0.71763073E-03
0.48692335E-03
0.33423913E-03
0.22897508E-03
0.15528781E-03
0.10500025E-03
0.71765251E-04
0.49100836E-04
0.33411918E-04
0.22875975E-04
0.15785236E-04
0.10856593E-04
0.74447153E-05
0.51527159E-05
0.35758285E-05
0.24807530E-05
0.17266692E-05
0.12024353E-05
0.83812142E-06
0.58327947E-06
0.40374400E-06
0.27915536E-06
0.19249042E-06
0.13242273E-06
0.90323056E-07
0.61202336E-07
0.41339248E-07
0.27533561E-07
0.18048974E-07
0.11682848E-07
0.74501076E-08
0.46409596E-08
0.28073575E-08
0.16513990E-08
0.93611585E-09
0.50396970E-09
0.26012448E-09
0.13368889E-09
0.78495106E-10
0.62907381E-10
0.68183792E-10
0.81929144E-10
0.97072801E-10
0.11024862E-09
0.11942453E-09
0.12392917E-09
0.12412285E-09
