atomic number =   78
effective nuclear charge =   78
electron count =    4
net charge =   74
basis set = approximate basis set limit (UGBS)      
exchange correlation functional = PW91PW91            
cutoff radius (picometer) =  400
number of shells =   75
prepared by = Thomas A. Manz      
prepared date = July 2010           
net magnetization =    0
density in atomic units:
0.68938750E+05
0.56664014E+01
0.25278805E-01
0.53058106E-04
0.39043312E-05
0.41312437E-05
0.29968317E-06
0.78248331E-06
0.34192010E-06
0.25526028E-07
0.12763357E-06
0.11574158E-06
0.32731325E-07
0.19022008E-08
0.13024406E-07
0.23429523E-07
0.19334237E-07
0.89906509E-08
0.18984188E-08
0.16963977E-09
0.14798879E-08
0.31853822E-08
0.38485757E-08
0.33333072E-08
0.22225333E-08
0.11123512E-08
0.35940462E-09
0.39051155E-10
0.50170867E-10
0.23159802E-09
0.43081902E-09
0.56740890E-09
0.60928895E-09
0.56092819E-09
0.45641929E-09
0.32878228E-09
0.20516498E-09
0.10740012E-09
0.42735936E-10
0.88134387E-11
0.10624644E-11
0.11341934E-10
0.31044667E-10
0.53214586E-10
0.72529184E-10
0.86096165E-10
0.92688149E-10
0.92480662E-10
0.86558823E-10
0.76452317E-10
0.63974902E-10
0.50714825E-10
0.37791319E-10
0.26274578E-10
0.16843683E-10
0.95333307E-11
0.44221554E-11
0.14062024E-11
0.14862539E-12
0.26599675E-12
0.13825650E-11
0.31176507E-11
0.51613874E-11
0.72584929E-11
0.91994025E-11
0.10835951E-10
0.12072955E-10
0.12886294E-10
0.13275653E-10
0.13251653E-10
0.12885489E-10
0.12221483E-10
0.11322180E-10
0.10267338E-10
0.91245770E-11
