atomic number =   10
effective nuclear charge =   10
electron count =    4
net charge =    6
basis set = approximate basis set limit (UGBS)      
exchange correlation functional = PW91PW91            
cutoff radius (picometer) =  300
number of shells =   50
prepared by = Thomas A. Manz      
prepared date = July 2010           
net magnetization =    0
density in atomic units:
0.16585747E+03
0.17301247E+02
0.25578837E+01
0.85397136E+00
0.61958694E+00
0.47020930E+00
0.33326212E+00
0.22813354E+00
0.14967868E+00
0.97022079E-01
0.61362229E-01
0.38226411E-01
0.24497610E-01
0.15511066E-01
0.98662023E-02
0.62430170E-02
0.39241919E-02
0.25240942E-02
0.16093290E-02
0.10268176E-02
0.65779930E-03
0.42210839E-03
0.27270726E-03
0.17660152E-03
0.11429411E-03
0.73984891E-04
0.48044931E-04
0.31586529E-04
0.20628197E-04
0.13445567E-04
0.88182996E-05
0.57742609E-05
0.38018522E-05
0.24995777E-05
0.16449051E-05
0.10908389E-05
0.72647339E-06
0.48321652E-06
0.31962071E-06
0.21242376E-06
0.14178596E-06
0.93866923E-07
0.62274424E-07
0.41342240E-07
0.27275917E-07
0.17999144E-07
0.11797260E-07
0.76914217E-08
0.49870619E-08
0.32256391E-08
