atomic number =   80
effective nuclear charge =   80
electron count =   78
net charge =    2
basis set = approximate basis set limit (UGBS)      
exchange correlation functional = PW91PW91            
cutoff radius (picometer) =  300
number of shells =   50
prepared by = Thomas A. Manz      
prepared date = July 2010           
net magnetization =    0
density in atomic units:
0.78163172E+05
0.27730737E+03
0.77368973E+02
0.43805012E+02
0.19366903E+02
0.76361566E+01
0.39053464E+01
0.25859616E+01
0.18250247E+01
0.12996794E+01
0.90280718E+00
0.61604637E+00
0.42925349E+00
0.29682803E+00
0.20723532E+00
0.14517634E+00
0.10214488E+00
0.73705487E-01
0.53206213E-01
0.38650859E-01
0.28285036E-01
0.20800434E-01
0.15418641E-01
0.11481364E-01
0.85703218E-02
0.64142514E-02
0.48226519E-02
0.36621820E-02
0.27728332E-02
0.20994446E-02
0.15976022E-02
0.12157081E-02
0.92907524E-03
0.71019563E-03
0.54374512E-03
0.41879574E-03
0.32384589E-03
0.25053095E-03
0.19341904E-03
0.15004743E-03
0.11689911E-03
0.90778274E-04
0.70753689E-04
0.55286469E-04
0.43151947E-04
0.33779368E-04
0.26419842E-04
0.20671006E-04
0.16183869E-04
0.12707329E-04
