atomic number =   80
effective nuclear charge =   80
electron count =   62
net charge =   18
basis set = approximate basis set limit (UGBS)      
exchange correlation functional = PW91PW91            
cutoff radius (picometer) =  300
number of shells =   50
prepared by = Thomas A. Manz      
prepared date = July 2010           
net magnetization =    0
density in atomic units:
0.78153289E+05
0.27530612E+03
0.74520454E+02
0.42332237E+02
0.19244940E+02
0.70674739E+01
0.26990960E+01
0.11889915E+01
0.55080539E+00
0.26963308E+00
0.13143468E+00
0.62958881E-01
0.31565819E-01
0.15537878E-01
0.76789232E-02
0.37642841E-02
0.18137324E-02
0.90339390E-03
0.44179417E-03
0.21525637E-03
0.10507314E-03
0.51164570E-04
0.25052981E-04
0.12267275E-04
0.59777676E-05
0.29094942E-05
0.14227763E-05
0.71223866E-06
0.35452342E-06
0.17678495E-06
0.89553581E-07
0.45517549E-07
0.23438103E-07
0.12099679E-07
0.62868097E-08
0.33443004E-08
0.18365861E-08
0.10599677E-08
0.66201961E-09
0.46426996E-09
0.36217848E-09
0.30169148E-09
0.25926333E-09
0.22297617E-09
0.18803702E-09
0.15450298E-09
0.12273364E-09
0.94342312E-10
0.70333420E-10
0.51465124E-10
