atomic number =  108
effective nuclear charge =  108
electron count =   80
net charge =   28
basis set = approximate basis set limit (UGBS)      
exchange correlation functional = PW91PW91            
cutoff radius (picometer) =  500
number of shells =  100
prepared by = Thomas A. Manz      
prepared date = July 2010           
net magnetization =    0
density in atomic units:
0.13126601E+07
0.79763794E+03
0.22596585E+03
0.66480812E+02
0.23401396E+02
0.14635430E+02
0.88126488E+01
0.46049814E+01
0.23423936E+01
0.12018353E+01
0.63791257E+00
0.36472771E+00
0.21236336E+00
0.12477512E+00
0.76685369E-01
0.47682442E-01
0.29003458E-01
0.17789062E-01
0.10891578E-01
0.65422179E-02
0.39562699E-02
0.24131380E-02
0.14477674E-02
0.86362584E-03
0.51822898E-03
0.30927110E-03
0.18386677E-03
0.11034535E-03
0.65707638E-04
0.39297694E-04
0.23711258E-04
0.14204426E-04
0.85665324E-05
0.51877419E-05
0.31387344E-05
0.18886021E-05
0.11307415E-05
0.67598546E-06
0.40547758E-06
0.24141403E-06
0.14282263E-06
0.84255745E-07
0.49338862E-07
0.29216631E-07
0.17354695E-07
0.10314896E-07
0.63325922E-08
0.41143475E-08
0.28297868E-08
0.20875532E-08
0.16406712E-08
0.13449001E-08
0.11290179E-08
0.95188146E-09
0.79404705E-09
0.64973366E-09
0.51791621E-09
0.40135537E-09
0.30174421E-09
0.22025740E-09
0.15635267E-09
0.10945447E-09
0.78244092E-10
0.60294734E-10
0.53261923E-10
0.54576108E-10
0.61717312E-10
0.72656048E-10
0.85323408E-10
0.98203182E-10
0.10987253E-09
0.11953932E-09
0.12681124E-09
0.13144993E-09
0.13302043E-09
0.13204030E-09
0.12856560E-09
0.12299629E-09
0.11574821E-09
0.10728154E-09
0.97859609E-10
0.87861808E-10
0.77695364E-10
0.67693094E-10
0.58164015E-10
0.49280937E-10
0.41075827E-10
0.33688202E-10
0.27180161E-10
0.21538870E-10
0.16851470E-10
0.13013249E-10
0.99724066E-11
0.77152278E-11
0.61279198E-11
0.51410434E-11
0.46650895E-11
0.46150956E-11
0.49148983E-11
0.54898473E-11
