atomic number =   95
effective nuclear charge =   95
electron count =    4
net charge =   91
basis set = approximate basis set limit (UGBS)      
exchange correlation functional = PW91PW91            
cutoff radius (picometer) =  300
number of shells =   50
prepared by = Thomas A. Manz      
prepared date = July 2010           
net magnetization =    0
density in atomic units:
0.12518138E+06
0.55828881E+00
0.35667385E-03
0.37528924E-04
0.87464614E-05
0.23103235E-05
0.16797283E-05
0.87838254E-06
0.67002574E-07
0.30161138E-06
0.20073524E-06
0.24255488E-07
0.14380231E-07
0.48392351E-07
0.46831428E-07
0.21971950E-07
0.38181960E-08
0.62247507E-09
0.45707345E-08
0.80656166E-08
0.81594180E-08
0.57719047E-08
0.29137521E-08
0.89771873E-09
0.78060572E-10
0.17077835E-09
0.65692518E-09
0.11102057E-08
0.13388777E-08
0.12994188E-08
0.10670761E-08
0.74895323E-09
0.44441978E-09
0.20778054E-09
0.63387816E-10
0.61036358E-11
0.11390213E-10
0.53382427E-10
0.10890314E-09
0.15860566E-09
0.19229678E-09
0.20686795E-09
0.20254340E-09
0.18356996E-09
0.15498972E-09
0.12233152E-09
0.89570656E-10
0.60192080E-10
0.36217526E-10
0.18681836E-10
