atomic number =  100
effective nuclear charge =  100
electron count =   80
net charge =   20
basis set = approximate basis set limit (UGBS)      
exchange correlation functional = PW91PW91            
cutoff radius (picometer) =  400
number of shells =   75
prepared by = Thomas A. Manz      
prepared date = July 2010           
net magnetization =    0
density in atomic units:
0.15290128E+06
0.45005032E+03
0.16513617E+03
0.64544403E+02
0.22162901E+02
0.11689150E+02
0.74143119E+01
0.43208332E+01
0.23338363E+01
0.12463347E+01
0.68408376E+00
0.39004138E+00
0.23120295E+00
0.14391476E+00
0.92328645E-01
0.60168155E-01
0.39352000E-01
0.25853321E-01
0.17114718E-01
0.11378300E-01
0.75680926E-02
0.50213430E-02
0.33081106E-02
0.21822308E-02
0.14390989E-02
0.94733067E-03
0.62320131E-03
0.41087938E-03
0.26784738E-03
0.17437992E-03
0.11504238E-03
0.75750577E-04
0.49338731E-04
0.32043426E-04
0.21068168E-04
0.13883685E-04
0.91032171E-05
0.60197121E-05
0.40226560E-05
0.26852447E-05
0.17923071E-05
0.12122572E-05
0.82538998E-06
0.56418367E-06
0.38807426E-06
0.26802462E-06
0.18597002E-06
0.12920661E-06
0.89402512E-07
0.61793145E-07
0.42577263E-07
0.29210193E-07
0.19723817E-07
0.13152583E-07
0.86316243E-08
0.55060410E-08
0.33855962E-08
0.20042810E-08
0.11359809E-08
0.61270455E-09
0.32745495E-09
0.20081503E-09
0.17287108E-09
0.20251879E-09
0.26172450E-09
0.33018024E-09
0.39551107E-09
0.44930590E-09
0.48897547E-09
0.51263321E-09
0.52098420E-09
0.51518934E-09
0.49636806E-09
0.46708259E-09
0.43279891E-09
