atomic number =  106
effective nuclear charge =  106
electron count =   60
net charge =   46
basis set = approximate basis set limit (UGBS)      
exchange correlation functional = PW91PW91            
cutoff radius (picometer) =  400
number of shells =   75
prepared by = Thomas A. Manz      
prepared date = July 2010           
net magnetization =    0
density in atomic units:
0.17909088E+06
0.45183337E+03
0.16629344E+03
0.55651520E+02
0.12095379E+02
0.20136871E+01
0.32015646E+00
0.53147338E-01
0.85485000E-02
0.14244156E-02
0.23171314E-03
0.40506660E-04
0.78084468E-05
0.17139780E-05
0.44879343E-06
0.20837814E-06
0.13757509E-06
0.76241903E-07
0.29375887E-07
0.87287040E-08
0.79934965E-08
0.14881182E-07
0.19933207E-07
0.19755991E-07
0.15589638E-07
0.10026834E-07
0.52618057E-08
0.23162712E-08
0.11580206E-08
0.12874227E-08
0.19792823E-08
0.26945601E-08
0.31291030E-08
0.31603566E-08
0.28511531E-08
0.23271378E-08
0.17185366E-08
0.11553998E-08
0.70875250E-09
0.39544135E-09
0.21913001E-09
0.16059540E-09
0.18208333E-09
0.24899688E-09
0.33059200E-09
0.40503265E-09
0.45831855E-09
0.48394300E-09
0.48146731E-09
0.45428394E-09
0.40862080E-09
0.35169631E-09
0.28926458E-09
0.22770379E-09
0.17196862E-09
0.12351048E-09
0.84304994E-10
0.55276742E-10
0.35843849E-10
0.24701423E-10
0.20478161E-10
0.21585350E-10
0.26393134E-10
0.33474893E-10
0.41545236E-10
0.49560200E-10
0.56669402E-10
0.62470959E-10
0.66663668E-10
0.68997509E-10
0.69512965E-10
0.68426896E-10
0.65906544E-10
0.62186790E-10
0.57613872E-10
