atomic number =  106
effective nuclear charge =  106
electron count =   78
net charge =   28
basis set = approximate basis set limit (UGBS)      
exchange correlation functional = PW91PW91            
cutoff radius (picometer) =  500
number of shells =  100
prepared by = Thomas A. Manz      
prepared date = July 2010           
net magnetization =    0
density in atomic units:
0.12472592E+07
0.78427936E+03
0.21901823E+03
0.68756317E+02
0.22942867E+02
0.14198405E+02
0.89174767E+01
0.48104138E+01
0.24135041E+01
0.11435907E+01
0.51924306E+00
0.23942399E+00
0.10624615E+00
0.45430817E-01
0.20402452E-01
0.93465168E-02
0.41437689E-02
0.18698828E-02
0.84546086E-03
0.36935450E-03
0.16256343E-03
0.72820665E-04
0.32000335E-04
0.14166472E-04
0.64786332E-05
0.30147428E-05
0.14254980E-05
0.69281413E-06
0.33410714E-06
0.16139533E-06
0.79176878E-07
0.39718763E-07
0.22108191E-07
0.14419306E-07
0.10883972E-07
0.88386605E-08
0.71844721E-08
0.55924407E-08
0.40872603E-08
0.27408162E-08
0.16674554E-08
0.91769570E-09
0.48016480E-09
0.31431327E-09
0.34126399E-09
0.49303178E-09
0.69716394E-09
0.89645608E-09
0.10608899E-08
0.11664419E-08
0.12053707E-08
0.11804402E-08
0.11039063E-08
0.98963937E-09
0.85179286E-09
0.70344136E-09
0.55635785E-09
0.42119383E-09
0.30450639E-09
0.20963933E-09
0.13713500E-09
0.86517973E-10
0.55861191E-10
0.42004861E-10
0.41601337E-10
0.50965236E-10
0.66848950E-10
0.86549913E-10
0.10730015E-09
0.12721127E-09
0.14450031E-09
0.15826332E-09
0.16830759E-09
0.17395028E-09
0.17548203E-09
0.17288440E-09
0.16739640E-09
0.15879444E-09
0.14816202E-09
0.13603153E-09
0.12270655E-09
0.10885907E-09
0.94941381E-10
0.81458153E-10
0.68761281E-10
0.57095304E-10
0.46456571E-10
0.37044125E-10
0.28890994E-10
0.21937738E-10
0.16300713E-10
0.11835105E-10
0.84315601E-11
0.60464325E-11
0.45361167E-11
0.37841609E-11
0.36682645E-11
0.40726762E-11
0.48933513E-11
0.60190021E-11
