atomic number =   94
effective nuclear charge =   94
electron count =   86
net charge =    8
basis set = approximate basis set limit (UGBS)      
exchange correlation functional = PW91PW91            
cutoff radius (picometer) =  500
number of shells =  100
prepared by = Thomas A. Manz      
prepared date = July 2010           
net magnetization =    0
density in atomic units:
0.88704000E+06
0.70536230E+03
0.16720795E+03
0.79019363E+02
0.27557667E+02
0.13314711E+02
0.85356855E+01
0.57011251E+01
0.36994336E+01
0.23055422E+01
0.14374760E+01
0.95555490E+00
0.66823101E+00
0.49324080E+00
0.38642812E+00
0.30973119E+00
0.24753752E+00
0.19865690E+00
0.15863243E+00
0.12500131E+00
0.98345742E-01
0.77316925E-01
0.60075015E-01
0.46401385E-01
0.35855070E-01
0.27560996E-01
0.21105835E-01
0.16202845E-01
0.12361230E-01
0.94345901E-02
0.72167413E-02
0.54908777E-02
0.41868193E-02
0.31966260E-02
0.24389350E-02
0.18555319E-02
0.14101062E-02
0.10727758E-02
0.81980048E-03
0.62562496E-03
0.47774278E-03
0.36535645E-03
0.27920524E-03
0.21493103E-03
0.16545714E-03
0.12661226E-03
0.97204014E-04
0.75078970E-04
0.57774196E-04
0.44460554E-04
0.34207078E-04
0.26264368E-04
0.20225194E-04
0.15603053E-04
0.12015015E-04
0.92363307E-05
0.70784499E-05
0.54235570E-05
0.41541598E-05
0.31838433E-05
0.24359172E-05
0.18612620E-05
0.14228865E-05
0.10853400E-05
0.82649831E-06
0.63097889E-06
0.48119915E-06
0.36523605E-06
0.27686406E-06
0.20931734E-06
0.15848646E-06
0.11983987E-06
0.90289433E-07
0.68018650E-07
0.50990586E-07
0.38142772E-07
0.28489463E-07
0.21185507E-07
0.15715637E-07
0.11662807E-07
0.86131546E-08
0.63351271E-08
0.46429607E-08
0.33976217E-08
0.24911286E-08
0.18304346E-08
0.13439091E-08
0.98972763E-09
0.73236428E-09
0.54445681E-09
0.41048107E-09
0.31360967E-09
0.24375621E-09
0.19451321E-09
0.15945215E-09
0.13490700E-09
0.11822252E-09
0.10717149E-09
0.10037342E-09
0.97101258E-10
