atomic number =   92
effective nuclear charge =   92
electron count =   80
net charge =   12
basis set = approximate basis set limit (UGBS)      
exchange correlation functional = PW91PW91            
cutoff radius (picometer) =  500
number of shells =  100
prepared by = Thomas A. Manz      
prepared date = July 2010           
net magnetization =    0
density in atomic units:
0.83223019E+06
0.68933197E+03
0.15743233E+03
0.78719696E+02
0.28814381E+02
0.13153211E+02
0.80528193E+01
0.55216513E+01
0.37661173E+01
0.24315584E+01
0.15107889E+01
0.94812548E+00
0.58924341E+00
0.36820167E+00
0.24198909E+00
0.16317379E+00
0.10998029E+00
0.75818829E-01
0.52855141E-01
0.36733843E-01
0.25867268E-01
0.18422497E-01
0.13025679E-01
0.91981618E-02
0.65294737E-02
0.46179374E-02
0.32559109E-02
0.23062292E-02
0.16216012E-02
0.11412099E-02
0.80569659E-03
0.56487572E-03
0.39712139E-03
0.27961840E-03
0.19667846E-03
0.13782599E-03
0.96434414E-04
0.67564790E-04
0.47615456E-04
0.33507655E-04
0.23600440E-04
0.16663642E-04
0.11757978E-04
0.83785444E-05
0.59747572E-05
0.42287575E-05
0.30066335E-05
0.21546773E-05
0.15370923E-05
0.10959058E-05
0.78081229E-06
0.55412340E-06
0.39414425E-06
0.28042228E-06
0.19851937E-06
0.13972014E-06
0.97571970E-07
0.67766223E-07
0.46789204E-07
0.32089396E-07
0.21772758E-07
0.14592387E-07
0.96714832E-08
0.62981917E-08
0.40185699E-08
0.25232789E-08
0.15443924E-08
0.90875613E-09
0.51623922E-09
0.28210337E-09
0.15291676E-09
0.87537790E-10
0.60025040E-10
0.54257526E-10
0.59147617E-10
0.68328204E-10
0.77673541E-10
0.85155036E-10
0.89843667E-10
0.91545257E-10
0.90430295E-10
0.87050825E-10
0.81822313E-10
0.75318085E-10
0.68176367E-10
0.60821230E-10
0.53513190E-10
0.46620041E-10
0.40273989E-10
0.34646772E-10
0.29870474E-10
0.25989242E-10
0.22898825E-10
0.20676690E-10
0.19229656E-10
0.18417746E-10
0.18230535E-10
0.18551122E-10
0.19276847E-10
0.20290275E-10
