atomic number =   78
effective nuclear charge =   78
electron count =   18
net charge =   60
basis set = approximate basis set limit (UGBS)      
exchange correlation functional = PW91PW91            
cutoff radius (picometer) =  500
number of shells =  100
prepared by = Thomas A. Manz      
prepared date = July 2010           
net magnetization =    0
density in atomic units:
0.49566888E+06
0.23261841E+03
0.47001110E+02
0.44130998E+01
0.26511487E+00
0.21939173E-01
0.16660501E-02
0.90649468E-04
0.61095147E-05
0.57787929E-06
0.10060040E-06
0.19132641E-06
0.13326300E-06
0.31105813E-07
0.23124167E-08
0.17745091E-07
0.31463973E-07
0.27613694E-07
0.14929261E-07
0.42888861E-08
0.33957637E-09
0.11450449E-08
0.34692149E-08
0.50230828E-08
0.50716715E-08
0.39884509E-08
0.24874061E-08
0.11935826E-08
0.36229730E-09
0.42114267E-10
0.90415300E-10
0.32277819E-09
0.57868782E-09
0.76020895E-09
0.82988338E-09
0.79071916E-09
0.67177625E-09
0.51275573E-09
0.35163625E-09
0.21022249E-09
0.10405778E-09
0.37644554E-10
0.70730995E-11
0.48420504E-11
0.21001950E-10
0.47324800E-10
0.75333760E-10
0.99253675E-10
0.11671357E-09
0.12591268E-09
0.12686829E-09
0.12062321E-09
0.10909462E-09
0.94197067E-10
0.77578617E-10
0.60776911E-10
0.44948163E-10
0.31150468E-10
0.19896458E-10
0.11373087E-10
0.54527758E-11
0.19224910E-11
0.44742075E-12
0.59517739E-12
0.19462394E-11
0.40521289E-11
0.65774721E-11
0.92587387E-11
0.11801764E-10
0.14034125E-10
0.15815859E-10
0.17102309E-10
0.17888292E-10
0.18177177E-10
0.17993638E-10
0.17421883E-10
0.16513305E-10
0.15341331E-10
0.13990945E-10
0.12536173E-10
0.11016644E-10
0.94926402E-11
0.80166377E-11
0.66327503E-11
0.53679010E-11
0.42402050E-11
0.32481060E-11
0.24012565E-11
0.16975745E-11
0.11285838E-11
0.69616773E-12
0.38172132E-12
0.17342639E-12
0.60890149E-13
0.27590247E-13
0.60253397E-13
0.14482122E-12
0.27014366E-12
0.42504666E-12
0.59868077E-12
