atomic number =   12
effective nuclear charge =   12
electron count =    2
net charge =   10
basis set = approximate basis set limit (UGBS)      
exchange correlation functional = PW91PW91            
cutoff radius (picometer) =  300
number of shells =   50
prepared by = Thomas A. Manz      
prepared date = May 2010            
net magnetization =    0
density in atomic units:
0.23756783E+03
0.15455341E+02
0.13997836E+01
0.12710178E+00
0.12260654E-01
0.99479174E-03
0.82398612E-04
0.84183666E-05
0.77024475E-06
0.71787255E-07
0.73732558E-08
0.84164387E-09
0.13438102E-09
0.23107238E-10
0.37266518E-11
0.31551834E-12
0.10840629E-12
0.45284008E-12
0.66290923E-12
0.62150670E-12
0.42852308E-12
0.21654521E-12
0.70180176E-13
0.75894957E-14
0.88468949E-14
0.40917831E-13
0.74494549E-13
0.93328441E-13
0.94317823E-13
0.80675667E-13
0.59624377E-13
0.37577634E-13
0.19516232E-13
0.73304569E-14
0.12957020E-14
0.25697918E-15
0.23580743E-14
0.59491507E-14
0.96931316E-14
0.12572403E-13
0.14173704E-13
0.14455823E-13
0.13585007E-13
0.11892181E-13
0.97193168E-14
0.74296080E-14
0.52500517E-14
0.33782346E-14
0.19153213E-14
0.89758281E-15
