atomic number =   15
effective nuclear charge =   15
electron count =   12
net charge =    3
basis set = approximate basis set limit (UGBS)      
exchange correlation functional = PW91PW91            
cutoff radius (picometer) =  500
number of shells =  100
prepared by = Thomas A. Manz      
prepared date = July 2010           
net magnetization =    0
density in atomic units:
0.23563479E+04
0.58280560E+02
0.17328785E+02
0.10700084E+02
0.62691574E+01
0.36389258E+01
0.19777488E+01
0.10154918E+01
0.53966814E+00
0.29831165E+00
0.17709719E+00
0.11913879E+00
0.87807134E-01
0.69739245E-01
0.58806714E-01
0.50652072E-01
0.43566946E-01
0.37510488E-01
0.32094587E-01
0.27137410E-01
0.22866417E-01
0.19215895E-01
0.15979657E-01
0.13207489E-01
0.10902310E-01
0.89496542E-02
0.73156063E-02
0.59838053E-02
0.48666275E-02
0.39562867E-02
0.32191630E-02
0.26075901E-02
0.21147905E-02
0.17162986E-02
0.13916268E-02
0.11254306E-02
0.90901653E-03
0.73437917E-03
0.59499894E-03
0.48111912E-03
0.38891760E-03
0.31445627E-03
0.25387353E-03
0.20596848E-03
0.16697198E-03
0.13459964E-03
0.10873468E-03
0.88227185E-04
0.71358510E-04
0.57706788E-04
0.46661102E-04
0.37673090E-04
0.30505031E-04
0.24742814E-04
0.20051002E-04
0.16233476E-04
0.13122555E-04
0.10608849E-04
0.85829370E-05
0.69491889E-05
0.56223475E-05
0.45468501E-05
0.36806102E-05
0.29766934E-05
0.24052240E-05
0.19491497E-05
0.15787748E-05
0.12750355E-05
0.10293247E-05
0.83007984E-06
0.67095198E-06
0.54241116E-06
0.43795558E-06
0.35407888E-06
0.28576338E-06
0.23056585E-06
0.18611968E-06
0.15017604E-06
0.12131336E-06
0.98192281E-07
0.79353029E-07
0.64092305E-07
0.51777008E-07
0.41869114E-07
0.33959129E-07
0.27607509E-07
0.22451330E-07
0.18286237E-07
0.14916687E-07
0.12163366E-07
0.99618971E-08
0.81691001E-08
0.67034649E-08
0.55272582E-08
0.45661097E-08
0.37814929E-08
0.31461438E-08
0.26229314E-08
0.21912623E-08
0.18392374E-08
