atomic number =   78
effective nuclear charge =   78
electron count =    2
net charge =   76
basis set = approximate basis set limit (UGBS)      
exchange correlation functional = PW91PW91            
cutoff radius (picometer) =  400
number of shells =   75
prepared by = Thomas A. Manz      
prepared date = July 2010           
net magnetization =    0
density in atomic units:
0.60208000E+05
0.52827294E-03
0.42435495E-04
0.13661564E-04
0.31179900E-05
0.26716853E-05
0.20537740E-06
0.49135531E-06
0.22462469E-06
0.15729237E-07
0.79099131E-07
0.73375865E-07
0.21193923E-07
0.12054722E-08
0.79518987E-08
0.14573153E-07
0.12133511E-07
0.56893028E-08
0.12214250E-08
0.10268366E-09
0.90256347E-09
0.19677577E-08
0.23906779E-08
0.20778916E-08
0.13898424E-08
0.69830358E-09
0.22728348E-09
0.25266900E-10
0.30179061E-10
0.14206591E-09
0.26587335E-09
0.35123626E-09
0.37789277E-09
0.34838590E-09
0.28381331E-09
0.20472503E-09
0.12793573E-09
0.67111205E-10
0.26808562E-10
0.55875335E-11
0.63968362E-12
0.69256463E-11
0.19102048E-10
0.32844335E-10
0.44839847E-10
0.53280082E-10
0.57405580E-10
0.57316905E-10
0.53672480E-10
0.47421820E-10
0.39703480E-10
0.31486397E-10
0.23474332E-10
0.16330133E-10
0.10478499E-10
0.59387504E-11
0.27597172E-11
0.88165521E-12
0.94673218E-13
0.16127908E-12
0.84874853E-12
0.19208751E-11
0.31858138E-11
0.44855643E-11
0.56884970E-11
0.67037595E-11
0.74705780E-11
0.79770513E-11
0.82168387E-11
0.82064754E-11
0.79814436E-11
0.75703402E-11
0.70153605E-11
0.63626149E-11
0.56552805E-11
