atomic number =   65
effective nuclear charge =   65
electron count =   54
net charge =   11
basis set = approximate basis set limit (UGBS)      
exchange correlation functional = PW91PW91            
cutoff radius (picometer) =  500
number of shells =  100
prepared by = Thomas A. Manz      
prepared date = July 2010           
net magnetization =    0
density in atomic units:
0.27730191E+06
0.42009274E+03
0.11744635E+03
0.28611048E+02
0.16526180E+02
0.12165244E+02
0.75258446E+01
0.40449252E+01
0.21941650E+01
0.12796383E+01
0.83831406E+00
0.62251490E+00
0.48795718E+00
0.39006490E+00
0.31657168E+00
0.25525916E+00
0.20146191E+00
0.15803765E+00
0.12271549E+00
0.93738995E-01
0.71511492E-01
0.54582980E-01
0.41187134E-01
0.30932710E-01
0.23283793E-01
0.17458111E-01
0.13057759E-01
0.98096961E-02
0.73311571E-02
0.54888716E-02
0.41238782E-02
0.30840416E-02
0.23133741E-02
0.17387565E-02
0.13063516E-02
0.97887788E-03
0.73269504E-03
0.54903672E-03
0.41336240E-03
0.31071738E-03
0.23368337E-03
0.17599396E-03
0.13241688E-03
0.10039191E-03
0.76104086E-04
0.57322286E-04
0.43322878E-04
0.32948232E-04
0.24961229E-04
0.18908115E-04
0.14320568E-04
0.10821883E-04
0.82039087E-05
0.62320228E-05
0.47245621E-05
0.35762798E-05
0.26984869E-05
0.20361367E-05
0.15366486E-05
0.11607164E-05
0.87563154E-06
0.66019794E-06
0.49820159E-06
0.37569160E-06
0.28295784E-06
0.21402253E-06
0.16188703E-06
0.12199598E-06
0.91965902E-07
0.69278038E-07
0.52358001E-07
0.39591260E-07
0.29899816E-07
0.22619114E-07
0.17064645E-07
0.12863731E-07
0.96975485E-08
0.72986448E-08
0.54931224E-08
0.41393000E-08
0.31071845E-08
0.23255229E-08
0.17369630E-08
0.12959200E-08
0.96829234E-09
0.72382234E-09
0.53971178E-09
0.40256282E-09
0.30006533E-09
0.22318739E-09
0.16686796E-09
0.12490597E-09
0.93693539E-10
0.70905969E-10
0.54014185E-10
0.41532881E-10
0.32414356E-10
0.25632645E-10
0.20643931E-10
0.17075065E-10
