atomic number =   96
effective nuclear charge =   96
electron count =   86
net charge =   10
basis set = approximate basis set limit (UGBS)      
exchange correlation functional = PW91PW91            
cutoff radius (picometer) =  400
number of shells =   75
prepared by = Thomas A. Manz      
prepared date = July 2010           
net magnetization =    0
density in atomic units:
0.13600214E+06
0.44513214E+03
0.15299109E+03
0.68361633E+02
0.23854174E+02
0.11569413E+02
0.74583712E+01
0.46352997E+01
0.27059810E+01
0.15922801E+01
0.10013653E+01
0.68417853E+00
0.50091684E+00
0.38516134E+00
0.30172768E+00
0.23662478E+00
0.18402247E+00
0.14193755E+00
0.10902071E+00
0.83279304E-01
0.63291088E-01
0.47771376E-01
0.35780605E-01
0.26751893E-01
0.19971259E-01
0.14875393E-01
0.11068196E-01
0.82469191E-02
0.60933731E-02
0.45003002E-02
0.33545548E-02
0.24974991E-02
0.18450549E-02
0.13603057E-02
0.10116147E-02
0.75273419E-03
0.55777398E-03
0.41516841E-03
0.31081133E-03
0.23195280E-03
0.17265182E-03
0.12935718E-03
0.97088028E-04
0.72813178E-04
0.54731296E-04
0.41149760E-04
0.30969419E-04
0.23292579E-04
0.17460927E-04
0.13100609E-04
0.98279697E-05
0.73793271E-05
0.55226151E-05
0.41289159E-05
0.30965327E-05
0.23125283E-05
0.17203179E-05
0.12805444E-05
0.95320826E-06
0.70786427E-06
0.52413435E-06
0.38860546E-06
0.28760473E-06
0.21211119E-06
0.15600581E-06
0.11447903E-06
0.84010004E-07
0.61371935E-07
0.44655064E-07
0.32506804E-07
0.23660633E-07
0.17085032E-07
0.12271817E-07
0.87997289E-08
0.63090573E-08
