atomic number =  100
effective nuclear charge =  100
electron count =   86
net charge =   14
basis set = approximate basis set limit (UGBS)      
exchange correlation functional = PW91PW91            
cutoff radius (picometer) =  300
number of shells =   50
prepared by = Thomas A. Manz      
prepared date = July 2010           
net magnetization =    0
density in atomic units:
0.15290353E+06
0.33779718E+03
0.12289768E+03
0.36354893E+02
0.14913538E+02
0.84876099E+01
0.46127892E+01
0.24657476E+01
0.13591474E+01
0.84218651E+00
0.57409298E+00
0.41474569E+00
0.31239569E+00
0.23335572E+00
0.17341761E+00
0.12692983E+00
0.91571882E-01
0.66506259E-01
0.47621846E-01
0.33894900E-01
0.24070879E-01
0.17043311E-01
0.12089906E-01
0.85681062E-02
0.60552252E-02
0.42712553E-02
0.30161205E-02
0.21481141E-02
0.15200196E-02
0.10730438E-02
0.76103798E-03
0.53895102E-03
0.38340583E-03
0.27249017E-03
0.19387832E-03
0.13887796E-03
0.99893427E-04
0.71821240E-04
0.51443298E-04
0.37028614E-04
0.26761320E-04
0.19232257E-04
0.13865184E-04
0.10008195E-04
0.72030084E-05
0.51898983E-05
0.37270411E-05
0.26707112E-05
0.19090855E-05
0.13663567E-05
