atomic number =   96
effective nuclear charge =   96
electron count =    4
net charge =   92
basis set = approximate basis set limit (UGBS)      
exchange correlation functional = PW91PW91            
cutoff radius (picometer) =  300
number of shells =   50
prepared by = Thomas A. Manz      
prepared date = July 2010           
net magnetization =    0
density in atomic units:
0.12901933E+06
0.50142431E+00
0.32635211E-03
0.39056486E-04
0.90561161E-05
0.23983780E-05
0.17387272E-05
0.91055693E-06
0.69333026E-07
0.31221586E-06
0.20793081E-06
0.25147566E-07
0.14871782E-07
0.50091348E-07
0.48488669E-07
0.22755190E-07
0.39562682E-08
0.64369388E-09
0.47300368E-08
0.83484837E-08
0.84471115E-08
0.59757208E-08
0.30169482E-08
0.92970076E-09
0.80884403E-10
0.17666917E-09
0.67987371E-09
0.11491591E-08
0.13858662E-08
0.13452156E-08
0.11046142E-08
0.77520379E-09
0.46011026E-09
0.21509784E-09
0.65645621E-10
0.63230493E-11
0.11783022E-10
0.55235115E-10
0.11271722E-09
0.16415673E-09
0.19904609E-09
0.21412842E-09
0.20963629E-09
0.19003035E-09
0.16044024E-09
0.12664712E-09
0.92723322E-10
0.62317686E-10
0.37483409E-10
0.19338057E-10
