atomic number =   80
effective nuclear charge =   80
electron count =   48
net charge =   32
basis set = approximate basis set limit (UGBS)      
exchange correlation functional = PW91PW91            
cutoff radius (picometer) =  500
number of shells =  100
prepared by = Thomas A. Manz      
prepared date = July 2010           
net magnetization =    0
density in atomic units:
0.54146325E+06
0.55460712E+03
0.91817085E+02
0.38003143E+02
0.21840336E+02
0.10489374E+02
0.44390812E+01
0.18314682E+01
0.87012899E+00
0.46405521E+00
0.26406443E+00
0.15837499E+00
0.93316033E-01
0.53474002E-01
0.31232595E-01
0.18155547E-01
0.10181284E-01
0.57376232E-02
0.32274111E-02
0.17778581E-02
0.98948204E-03
0.55784237E-03
0.30903143E-03
0.17022566E-03
0.94407485E-04
0.51994961E-04
0.28463312E-04
0.15732780E-04
0.86075115E-05
0.47299040E-05
0.26277723E-05
0.14498462E-05
0.80871098E-06
0.45496239E-06
0.25678369E-06
0.14475000E-06
0.81601272E-07
0.46151872E-07
0.26330865E-07
0.14960372E-07
0.84717255E-08
0.48062194E-08
0.27255744E-08
0.15910171E-08
0.96321151E-09
0.61869798E-09
0.44226989E-09
0.35438641E-09
0.30773994E-09
0.27965374E-09
0.25761018E-09
0.23522009E-09
0.21091980E-09
0.18468818E-09
0.15719469E-09
0.12983392E-09
0.10382659E-09
0.80517162E-10
0.60675812E-10
0.44686074E-10
0.32456378E-10
0.23840154E-10
0.18472952E-10
0.15806041E-10
0.15291253E-10
0.16338276E-10
0.18418314E-10
0.21109692E-10
0.23966057E-10
0.26687716E-10
0.28999700E-10
0.30775226E-10
0.31957350E-10
0.32491638E-10
0.32360364E-10
0.31682792E-10
0.30466681E-10
0.28820854E-10
0.26861230E-10
0.24681025E-10
0.22331900E-10
0.19915413E-10
0.17506758E-10
0.15168070E-10
0.12980480E-10
0.10960646E-10
0.91209497E-11
0.74912411E-11
0.60685094E-11
0.48468018E-11
0.38467732E-11
0.30430931E-11
0.24159455E-11
0.19615824E-11
0.16546950E-11
0.14771137E-11
0.14079802E-11
0.14295381E-11
0.15233882E-11
0.16732619E-11
