atomic number =   88
effective nuclear charge =   88
electron count =   80
net charge =    8
basis set = approximate basis set limit (UGBS)      
exchange correlation functional = PW91PW91            
cutoff radius (picometer) =  300
number of shells =   50
prepared by = Thomas A. Manz      
prepared date = July 2010           
net magnetization =    0
density in atomic units:
0.10497659E+06
0.29867740E+03
0.10122161E+03
0.44941277E+02
0.16025539E+02
0.72790332E+01
0.46447883E+01
0.31243312E+01
0.19767926E+01
0.12139286E+01
0.72616148E+00
0.43419138E+00
0.27378863E+00
0.17447212E+00
0.11403419E+00
0.75524203E-01
0.50465818E-01
0.34733105E-01
0.23862325E-01
0.16440446E-01
0.11360712E-01
0.78448383E-02
0.54314593E-02
0.37552926E-02
0.25865720E-02
0.17761689E-02
0.12199476E-02
0.84492326E-03
0.58065122E-03
0.39767494E-03
0.27349166E-03
0.18760713E-03
0.12917745E-03
0.88734792E-04
0.60936596E-04
0.42093085E-04
0.29158171E-04
0.20153417E-04
0.13845603E-04
0.95476735E-05
0.66042167E-05
0.45337770E-05
0.31203360E-05
0.21501446E-05
0.14750043E-05
0.10132320E-05
0.69332117E-06
0.47334578E-06
0.32257890E-06
0.22022823E-06
