atomic number =   92
effective nuclear charge =   92
electron count =   86
net charge =    6
basis set = approximate basis set limit (UGBS)      
exchange correlation functional = PW91PW91            
cutoff radius (picometer) =  500
number of shells =  100
prepared by = Thomas A. Manz      
prepared date = July 2010           
net magnetization =    0
density in atomic units:
0.83223019E+06
0.69004565E+03
0.15800700E+03
0.78880363E+02
0.28891563E+02
0.13413944E+02
0.83103685E+01
0.56489120E+01
0.37946091E+01
0.24347703E+01
0.15415295E+01
0.10238786E+01
0.70759511E+00
0.51494914E+00
0.40003684E+00
0.32014713E+00
0.25702095E+00
0.20805266E+00
0.16799007E+00
0.13407093E+00
0.10685582E+00
0.85073881E-01
0.66948637E-01
0.52353464E-01
0.40928286E-01
0.31814463E-01
0.24624102E-01
0.19092698E-01
0.14706452E-01
0.11326207E-01
0.87366961E-02
0.67020277E-02
0.51500467E-02
0.39611380E-02
0.30438949E-02
0.23321284E-02
0.17845861E-02
0.13667474E-02
0.10512180E-02
0.80727017E-03
0.62022993E-03
0.47713896E-03
0.36672092E-03
0.28382862E-03
0.21964073E-03
0.16893551E-03
0.13034383E-03
0.10113922E-03
0.78192017E-04
0.60441027E-04
0.46708945E-04
0.36021465E-04
0.27858865E-04
0.21584918E-04
0.16694052E-04
0.12889785E-04
0.99256722E-05
0.76384704E-05
0.58812307E-05
0.45279276E-05
0.34832965E-05
0.26748357E-05
0.20566297E-05
0.15777970E-05
0.12091404E-05
0.92863274E-06
0.71282949E-06
0.54455086E-06
0.41564530E-06
0.31653272E-06
0.24150114E-06
0.18405667E-06
0.13985033E-06
0.10625858E-06
0.80378641E-07
0.60648183E-07
0.45682871E-07
0.34295638E-07
0.25710914E-07
0.19273861E-07
0.14377147E-07
0.10677980E-07
0.79081692E-08
0.58498388E-08
0.43306985E-08
0.32105860E-08
0.23764957E-08
0.17627980E-08
0.13115141E-08
0.97779540E-09
0.73708639E-09
0.56089183E-09
0.43207546E-09
0.33975073E-09
0.27266034E-09
0.22430301E-09
0.19000182E-09
0.16544882E-09
0.14824202E-09
0.13678352E-09
