atomic number =   95
effective nuclear charge =   95
electron count =   80
net charge =   15
basis set = approximate basis set limit (UGBS)      
exchange correlation functional = PW91PW91            
cutoff radius (picometer) =  500
number of shells =  100
prepared by = Thomas A. Manz      
prepared date = July 2010           
net magnetization =    0
density in atomic units:
0.91507288E+06
0.71199371E+03
0.17124358E+03
0.78708336E+02
0.26784554E+02
0.12990824E+02
0.83949156E+01
0.56171951E+01
0.36284039E+01
0.22173843E+01
0.13134773E+01
0.79551959E+00
0.48180071E+00
0.29600751E+00
0.19276033E+00
0.12924272E+00
0.86640745E-01
0.59331037E-01
0.40993609E-01
0.28156202E-01
0.19555001E-01
0.13717605E-01
0.95370347E-02
0.66160429E-02
0.46129324E-02
0.32031636E-02
0.22169962E-02
0.15421233E-02
0.10645952E-02
0.73567097E-03
0.51016058E-03
0.35123227E-03
0.24253879E-03
0.16776581E-03
0.11593277E-03
0.79820347E-04
0.54870852E-04
0.37788657E-04
0.26197364E-04
0.18144437E-04
0.12587569E-04
0.87622911E-05
0.61021024E-05
0.42973006E-05
0.30319693E-05
0.21253682E-05
0.14985328E-05
0.10663698E-05
0.75586001E-06
0.53591140E-06
0.37995491E-06
0.26839160E-06
0.18994695E-06
0.13446089E-06
0.94606797E-07
0.66077106E-07
0.45686139E-07
0.31311625E-07
0.21249235E-07
0.14249982E-07
0.93897121E-08
0.60591852E-08
0.38227697E-08
0.23364606E-08
0.13747008E-08
0.78436596E-09
0.43223775E-09
0.23624558E-09
0.14443788E-09
0.11582670E-09
0.12296499E-09
0.14759580E-09
0.17821304E-09
0.20739085E-09
0.23207260E-09
0.24981930E-09
0.25886437E-09
0.26150096E-09
0.25718172E-09
0.24753297E-09
0.23369179E-09
0.21675887E-09
0.19750014E-09
0.17730681E-09
0.15730142E-09
0.13777260E-09
0.11921196E-09
0.10216023E-09
0.86825977E-10
0.73190100E-10
0.61709242E-10
0.51987550E-10
0.44187636E-10
0.38333843E-10
0.34053517E-10
0.31181301E-10
0.29622783E-10
0.29208535E-10
0.29704718E-10
0.30780732E-10
