atomic number =   82
effective nuclear charge =   82
electron count =   80
net charge =    2
basis set = approximate basis set limit (UGBS)      
exchange correlation functional = PW91PW91            
cutoff radius (picometer) =  400
number of shells =   75
prepared by = Thomas A. Manz      
prepared date = July 2010           
net magnetization =    0
density in atomic units:
0.84452680E+05
0.41558990E+03
0.10400769E+03
0.62041431E+02
0.31276079E+02
0.12897312E+02
0.62486153E+01
0.38694706E+01
0.27190721E+01
0.19672408E+01
0.14180493E+01
0.10091429E+01
0.71174222E+00
0.50485653E+00
0.36016873E+00
0.25876412E+00
0.18731235E+00
0.13745843E+00
0.10272777E+00
0.77937238E-01
0.59822708E-01
0.46276536E-01
0.35953745E-01
0.28150858E-01
0.22177361E-01
0.17545510E-01
0.13942263E-01
0.11137482E-01
0.88725826E-02
0.70879851E-02
0.57145394E-02
0.46112323E-02
0.37051304E-02
0.29759307E-02
0.24066232E-02
0.19473220E-02
0.15710596E-02
0.12713280E-02
0.10325888E-02
0.83636137E-03
0.67579618E-03
0.54844248E-03
0.44536631E-03
0.36137889E-03
0.29367206E-03
0.23867609E-03
0.19417587E-03
0.15792357E-03
0.12822730E-03
0.10422456E-03
0.84787287E-04
0.69072477E-04
0.56191315E-04
0.45731929E-04
0.37327532E-04
0.30413130E-04
0.24738969E-04
0.20149304E-04
0.16432781E-04
0.13390565E-04
0.10903051E-04
0.88915185E-05
0.72506077E-05
0.59049967E-05
0.48062934E-05
0.39117567E-05
0.31874322E-05
0.25941358E-05
0.21092567E-05
0.17168799E-05
0.14006622E-05
0.11388006E-05
0.92485084E-06
0.75160045E-06
0.61194294E-06
