atomic number =   22
effective nuclear charge =   22
electron count =   18
net charge =    4
basis set = approximate basis set limit (UGBS)      
exchange correlation functional = PW91PW91            
cutoff radius (picometer) =  500
number of shells =  100
prepared by = Thomas A. Manz      
prepared date = July 2010           
net magnetization =    0
density in atomic units:
0.80020273E+04
0.96197395E+02
0.38916119E+02
0.13778685E+02
0.46163459E+01
0.22227092E+01
0.15272006E+01
0.12706885E+01
0.10819534E+01
0.87888086E+00
0.68180907E+00
0.51724678E+00
0.37805593E+00
0.26845276E+00
0.19173199E+00
0.13599399E+00
0.94220422E-01
0.65477550E-01
0.45393664E-01
0.31070609E-01
0.21420375E-01
0.14891337E-01
0.10253129E-01
0.70476169E-02
0.48763468E-02
0.33667861E-02
0.23225823E-02
0.16147539E-02
0.11174569E-02
0.77637727E-03
0.54280664E-03
0.37772240E-03
0.26416749E-03
0.18533054E-03
0.13001473E-03
0.90922906E-04
0.63486834E-04
0.44376164E-04
0.31186151E-04
0.21868917E-04
0.15337040E-04
0.10776550E-04
0.75631456E-05
0.53598769E-05
0.38010160E-05
0.26764192E-05
0.18939717E-05
0.13523761E-05
0.96215888E-06
0.68501993E-06
0.48812228E-06
0.34704152E-06
0.24776520E-06
0.17729849E-06
0.12653500E-06
0.90024983E-07
0.63743322E-07
0.45040061E-07
0.31767581E-07
0.22371015E-07
0.15686350E-07
0.10952474E-07
0.76332904E-08
0.52942171E-08
0.36539882E-08
0.25268960E-08
0.17418221E-08
0.11911060E-08
0.81289775E-09
0.55329097E-09
0.37809955E-09
0.25900118E-09
0.17760340E-09
0.12281266E-09
0.85364930E-10
0.59981166E-10
0.42769926E-10
0.30970521E-10
0.22851004E-10
0.17206870E-10
0.13137111E-10
0.10158326E-10
0.79492775E-11
0.62775640E-11
0.49921157E-11
0.39831862E-11
0.31809522E-11
0.25429752E-11
0.20362306E-11
0.16369618E-11
0.13364504E-11
0.11147050E-11
0.95984711E-12
0.86414144E-12
0.81751039E-12
0.81082846E-12
0.83629073E-12
0.88698585E-12
0.95814925E-12
0.10416394E-11
