atomic number =   92
effective nuclear charge =   92
electron count =   12
net charge =   80
basis set = approximate basis set limit (UGBS)      
exchange correlation functional = PW91PW91            
cutoff radius (picometer) =  300
number of shells =   50
prepared by = Thomas A. Manz      
prepared date = July 2010           
net magnetization =    0
density in atomic units:
0.11780848E+06
0.30512375E+02
0.12773969E+01
0.24089588E-01
0.35587899E-03
0.51514508E-05
0.17876296E-05
0.84980547E-06
0.68531222E-07
0.29674351E-06
0.19569492E-06
0.23738851E-07
0.14621179E-07
0.47832781E-07
0.46078309E-07
0.21603638E-07
0.37884602E-08
0.66757050E-09
0.45500759E-08
0.79766602E-08
0.80592812E-08
0.57016991E-08
0.28830189E-08
0.89466795E-09
0.84961767E-10
0.17473079E-09
0.65285893E-09
0.10992641E-08
0.13243573E-08
0.12856670E-08
0.10563224E-08
0.74217432E-09
0.44134923E-09
0.20726011E-09
0.64225861E-10
0.71898503E-11
0.12045119E-10
0.53256208E-10
0.10797279E-09
0.15701727E-09
0.19026983E-09
0.20465818E-09
0.20047806E-09
0.18185092E-09
0.15364170E-09
0.12137572E-09
0.88979116E-10
0.59896664E-10
0.36153667E-10
0.18760478E-10
